{
  "sdtmigVersion": "3.4",
  "source": "SDTMIG v3.4 Classes and Columns.xlsx",
  "domains": {
    "AG": {
      "class": "Interventions",
      "variables": [
        {
          "order": 1,
          "name": "STUDYID",
          "label": "Study Identifier",
          "type": "Char",
          "role": "Identifier",
          "core": "Req",
          "codelistNcit": null,
          "codelistNcitAll": []
        },
        {
          "order": 2,
          "name": "DOMAIN",
          "label": "Domain Abbreviation",
          "type": "Char",
          "role": "Identifier",
          "core": "Req",
          "codelistNcit": null,
          "codelistNcitAll": []
        },
        {
          "order": 3,
          "name": "USUBJID",
          "label": "Unique Subject Identifier",
          "type": "Char",
          "role": "Identifier",
          "core": "Req",
          "codelistNcit": null,
          "codelistNcitAll": []
        },
        {
          "order": 4,
          "name": "AGSEQ",
          "label": "Sequence Number",
          "type": "Num",
          "role": "Identifier",
          "core": "Req",
          "codelistNcit": null,
          "codelistNcitAll": []
        },
        {
          "order": 5,
          "name": "AGGRPID",
          "label": "Group ID",
          "type": "Char",
          "role": "Identifier",
          "core": "Perm",
          "codelistNcit": null,
          "codelistNcitAll": []
        },
        {
          "order": 6,
          "name": "AGSPID",
          "label": "Sponsor-Defined Identifier",
          "type": "Char",
          "role": "Identifier",
          "core": "Perm",
          "codelistNcit": null,
          "codelistNcitAll": []
        },
        {
          "order": 7,
          "name": "AGLNKID",
          "label": "Link ID",
          "type": "Char",
          "role": "Identifier",
          "core": "Perm",
          "codelistNcit": null,
          "codelistNcitAll": []
        },
        {
          "order": 8,
          "name": "AGLNKGRP",
          "label": "Link Group ID",
          "type": "Char",
          "role": "Identifier",
          "core": "Perm",
          "codelistNcit": null,
          "codelistNcitAll": []
        },
        {
          "order": 9,
          "name": "AGTRT",
          "label": "Reported Agent Name",
          "type": "Char",
          "role": "Topic",
          "core": "Req",
          "codelistNcit": null,
          "codelistNcitAll": []
        },
        {
          "order": 10,
          "name": "AGMODIFY",
          "label": "Modified Reported Name",
          "type": "Char",
          "role": "Synonym Qualifier",
          "core": "Perm",
          "codelistNcit": null,
          "codelistNcitAll": []
        },
        {
          "order": 11,
          "name": "AGDECOD",
          "label": "Standardized Agent Name",
          "type": "Char",
          "role": "Synonym Qualifier",
          "core": "Perm",
          "codelistNcit": null,
          "codelistNcitAll": []
        },
        {
          "order": 12,
          "name": "AGCAT",
          "label": "Category for Agent",
          "type": "Char",
          "role": "Grouping Qualifier",
          "core": "Perm",
          "codelistNcit": null,
          "codelistNcitAll": []
        },
        {
          "order": 13,
          "name": "AGSCAT",
          "label": "Subcategory for Agent",
          "type": "Char",
          "role": "Grouping Qualifier",
          "core": "Perm",
          "codelistNcit": null,
          "codelistNcitAll": []
        },
        {
          "order": 14,
          "name": "AGPRESP",
          "label": "AG Pre-Specified",
          "type": "Char",
          "role": "Variable Qualifier",
          "core": "Perm",
          "codelistNcit": "C66742",
          "codelistNcitAll": [
            "C66742"
          ]
        },
        {
          "order": 15,
          "name": "AGOCCUR",
          "label": "AG Occurrence",
          "type": "Char",
          "role": "Record Qualifier",
          "core": "Perm",
          "codelistNcit": "C66742",
          "codelistNcitAll": [
            "C66742"
          ]
        },
        {
          "order": 16,
          "name": "AGSTAT",
          "label": "Completion Status",
          "type": "Char",
          "role": "Record Qualifier",
          "core": "Perm",
          "codelistNcit": "C66789",
          "codelistNcitAll": [
            "C66789"
          ]
        },
        {
          "order": 17,
          "name": "AGREASND",
          "label": "Reason Procedure Agent Not Collected",
          "type": "Char",
          "role": "Record Qualifier",
          "core": "Perm",
          "codelistNcit": null,
          "codelistNcitAll": []
        },
        {
          "order": 18,
          "name": "AGCLAS",
          "label": "Agent Class",
          "type": "Char",
          "role": "Variable Qualifier",
          "core": "Perm",
          "codelistNcit": null,
          "codelistNcitAll": []
        },
        {
          "order": 19,
          "name": "AGCLASCD",
          "label": "Agent Class Code",
          "type": "Char",
          "role": "Variable Qualifier",
          "core": "Perm",
          "codelistNcit": null,
          "codelistNcitAll": []
        },
        {
          "order": 20,
          "name": "AGDOSE",
          "label": "Dose per Administration",
          "type": "Num",
          "role": "Record Qualifier",
          "core": "Perm",
          "codelistNcit": null,
          "codelistNcitAll": []
        },
        {
          "order": 21,
          "name": "AGDOSTXT",
          "label": "Dose Description",
          "type": "Char",
          "role": "Record Qualifier",
          "core": "Perm",
          "codelistNcit": null,
          "codelistNcitAll": []
        },
        {
          "order": 22,
          "name": "AGDOSU",
          "label": "Dose Units",
          "type": "Char",
          "role": "Variable Qualifier",
          "core": "Perm",
          "codelistNcit": "C71620",
          "codelistNcitAll": [
            "C71620"
          ]
        },
        {
          "order": 23,
          "name": "AGDOSFRM",
          "label": "Dose Form",
          "type": "Char",
          "role": "Variable Qualifier",
          "core": "Perm",
          "codelistNcit": "C66726",
          "codelistNcitAll": [
            "C66726"
          ]
        },
        {
          "order": 24,
          "name": "AGDOSFRQ",
          "label": "Dosing Frequency per Interval",
          "type": "Char",
          "role": "Record Qualifier",
          "core": "Perm",
          "codelistNcit": "C71113",
          "codelistNcitAll": [
            "C71113"
          ]
        },
        {
          "order": 25,
          "name": "AGROUTE",
          "label": "Route of Administration",
          "type": "Char",
          "role": "Variable Qualifier",
          "core": "Perm",
          "codelistNcit": "C66729",
          "codelistNcitAll": [
            "C66729"
          ]
        },
        {
          "order": 26,
          "name": "VISITNUM",
          "label": "Visit Number",
          "type": "Num",
          "role": "Timing",
          "core": "Exp",
          "codelistNcit": null,
          "codelistNcitAll": []
        },
        {
          "order": 27,
          "name": "VISIT",
          "label": "Visit Name",
          "type": "Char",
          "role": "Timing",
          "core": "Perm",
          "codelistNcit": null,
          "codelistNcitAll": []
        },
        {
          "order": 28,
          "name": "VISITDY",
          "label": "Planned Study Day of Visit",
          "type": "Num",
          "role": "Timing",
          "core": "Perm",
          "codelistNcit": null,
          "codelistNcitAll": []
        },
        {
          "order": 29,
          "name": "TAETORD",
          "label": "Planned Order of Element within Arm",
          "type": "Num",
          "role": "Timing",
          "core": "Perm",
          "codelistNcit": null,
          "codelistNcitAll": []
        },
        {
          "order": 30,
          "name": "EPOCH",
          "label": "Epoch",
          "type": "Char",
          "role": "Timing",
          "core": "Perm",
          "codelistNcit": "C99079",
          "codelistNcitAll": [
            "C99079"
          ]
        },
        {
          "order": 31,
          "name": "AGSTDTC",
          "label": "Start Date/Time of Agent",
          "type": "Char",
          "role": "Timing",
          "core": "Perm",
          "codelistNcit": null,
          "codelistNcitAll": []
        },
        {
          "order": 32,
          "name": "AGENDTC",
          "label": "End Date/Time of Agent",
          "type": "Char",
          "role": "Timing",
          "core": "Perm",
          "codelistNcit": null,
          "codelistNcitAll": []
        },
        {
          "order": 33,
          "name": "AGSTDY",
          "label": "Study Day of Start of Agent",
          "type": "Num",
          "role": "Timing",
          "core": "Perm",
          "codelistNcit": null,
          "codelistNcitAll": []
        },
        {
          "order": 34,
          "name": "AGENDY",
          "label": "Study Day of End of Agent",
          "type": "Num",
          "role": "Timing",
          "core": "Perm",
          "codelistNcit": null,
          "codelistNcitAll": []
        },
        {
          "order": 35,
          "name": "AGDUR",
          "label": "Duration of Agent",
          "type": "Char",
          "role": "Timing",
          "core": "Perm",
          "codelistNcit": null,
          "codelistNcitAll": []
        },
        {
          "order": 36,
          "name": "AGSTRF",
          "label": "Start Relative to Reference Period",
          "type": "Char",
          "role": "Timing",
          "core": "Perm",
          "codelistNcit": "C66728",
          "codelistNcitAll": [
            "C66728"
          ]
        },
        {
          "order": 37,
          "name": "AGENRF",
          "label": "End Relative to Reference Period",
          "type": "Char",
          "role": "Timing",
          "core": "Perm",
          "codelistNcit": "C66728",
          "codelistNcitAll": [
            "C66728"
          ]
        },
        {
          "order": 38,
          "name": "AGSTRTPT",
          "label": "Start Relative to Reference Time Point",
          "type": "Char",
          "role": "Timing",
          "core": "Perm",
          "codelistNcit": "C66728",
          "codelistNcitAll": [
            "C66728"
          ]
        },
        {
          "order": 39,
          "name": "AGSTTPT",
          "label": "Start Reference Time Point",
          "type": "Char",
          "role": "Timing",
          "core": "Perm",
          "codelistNcit": null,
          "codelistNcitAll": []
        },
        {
          "order": 40,
          "name": "AGENRTPT",
          "label": "End Relative to Reference Time Point",
          "type": "Char",
          "role": "Timing",
          "core": "Perm",
          "codelistNcit": "C66728",
          "codelistNcitAll": [
            "C66728"
          ]
        },
        {
          "order": 41,
          "name": "AGENTPT",
          "label": "End Reference Time Point",
          "type": "Char",
          "role": "Timing",
          "core": "Perm",
          "codelistNcit": null,
          "codelistNcitAll": []
        }
      ]
    },
    "CM": {
      "class": "Interventions",
      "variables": [
        {
          "order": 1,
          "name": "STUDYID",
          "label": "Study Identifier",
          "type": "Char",
          "role": "Identifier",
          "core": "Req",
          "codelistNcit": null,
          "codelistNcitAll": []
        },
        {
          "order": 2,
          "name": "DOMAIN",
          "label": "Domain Abbreviation",
          "type": "Char",
          "role": "Identifier",
          "core": "Req",
          "codelistNcit": null,
          "codelistNcitAll": []
        },
        {
          "order": 3,
          "name": "USUBJID",
          "label": "Unique Subject Identifier",
          "type": "Char",
          "role": "Identifier",
          "core": "Req",
          "codelistNcit": null,
          "codelistNcitAll": []
        },
        {
          "order": 4,
          "name": "CMSEQ",
          "label": "Sequence Number",
          "type": "Num",
          "role": "Identifier",
          "core": "Req",
          "codelistNcit": null,
          "codelistNcitAll": []
        },
        {
          "order": 5,
          "name": "CMGRPID",
          "label": "Group ID",
          "type": "Char",
          "role": "Identifier",
          "core": "Perm",
          "codelistNcit": null,
          "codelistNcitAll": []
        },
        {
          "order": 6,
          "name": "CMSPID",
          "label": "Sponsor-Defined Identifier",
          "type": "Char",
          "role": "Identifier",
          "core": "Perm",
          "codelistNcit": null,
          "codelistNcitAll": []
        },
        {
          "order": 7,
          "name": "CMTRT",
          "label": "Reported Name of Drug, Med, or Therapy",
          "type": "Char",
          "role": "Topic",
          "core": "Req",
          "codelistNcit": null,
          "codelistNcitAll": []
        },
        {
          "order": 8,
          "name": "CMMODIFY",
          "label": "Modified Reported Name",
          "type": "Char",
          "role": "Synonym Qualifier",
          "core": "Perm",
          "codelistNcit": null,
          "codelistNcitAll": []
        },
        {
          "order": 9,
          "name": "CMDECOD",
          "label": "Standardized Medication Name",
          "type": "Char",
          "role": "Synonym Qualifier",
          "core": "Perm",
          "codelistNcit": null,
          "codelistNcitAll": []
        },
        {
          "order": 10,
          "name": "CMCAT",
          "label": "Category for Medication",
          "type": "Char",
          "role": "Grouping Qualifier",
          "core": "Perm",
          "codelistNcit": null,
          "codelistNcitAll": []
        },
        {
          "order": 11,
          "name": "CMSCAT",
          "label": "Subcategory for Medication",
          "type": "Char",
          "role": "Grouping Qualifier",
          "core": "Perm",
          "codelistNcit": null,
          "codelistNcitAll": []
        },
        {
          "order": 12,
          "name": "CMPRESP",
          "label": "CM Pre-specified",
          "type": "Char",
          "role": "Variable Qualifier",
          "core": "Perm",
          "codelistNcit": "C66742",
          "codelistNcitAll": [
            "C66742"
          ]
        },
        {
          "order": 13,
          "name": "CMOCCUR",
          "label": "CM Occurrence",
          "type": "Char",
          "role": "Record Qualifier",
          "core": "Perm",
          "codelistNcit": "C66742",
          "codelistNcitAll": [
            "C66742"
          ]
        },
        {
          "order": 14,
          "name": "CMSTAT",
          "label": "Completion Status",
          "type": "Char",
          "role": "Record Qualifier",
          "core": "Perm",
          "codelistNcit": "C66789",
          "codelistNcitAll": [
            "C66789"
          ]
        },
        {
          "order": 15,
          "name": "CMREASND",
          "label": "Reason Medication Not Collected",
          "type": "Char",
          "role": "Record Qualifier",
          "core": "Perm",
          "codelistNcit": null,
          "codelistNcitAll": []
        },
        {
          "order": 16,
          "name": "CMINDC",
          "label": "Indication",
          "type": "Char",
          "role": "Record Qualifier",
          "core": "Perm",
          "codelistNcit": null,
          "codelistNcitAll": []
        },
        {
          "order": 17,
          "name": "CMCLAS",
          "label": "Medication Class",
          "type": "Char",
          "role": "Variable Qualifier",
          "core": "Perm",
          "codelistNcit": null,
          "codelistNcitAll": []
        },
        {
          "order": 18,
          "name": "CMCLASCD",
          "label": "Medication Class Code",
          "type": "Char",
          "role": "Variable Qualifier",
          "core": "Perm",
          "codelistNcit": null,
          "codelistNcitAll": []
        },
        {
          "order": 19,
          "name": "CMDOSE",
          "label": "Dose per Administration",
          "type": "Num",
          "role": "Record Qualifier",
          "core": "Perm",
          "codelistNcit": null,
          "codelistNcitAll": []
        },
        {
          "order": 20,
          "name": "CMDOSTXT",
          "label": "Dose Description",
          "type": "Char",
          "role": "Record Qualifier",
          "core": "Perm",
          "codelistNcit": null,
          "codelistNcitAll": []
        },
        {
          "order": 21,
          "name": "CMDOSU",
          "label": "Dose Units",
          "type": "Char",
          "role": "Variable Qualifier",
          "core": "Perm",
          "codelistNcit": "C71620",
          "codelistNcitAll": [
            "C71620"
          ]
        },
        {
          "order": 22,
          "name": "CMDOSFRM",
          "label": "Dose Form",
          "type": "Char",
          "role": "Variable Qualifier",
          "core": "Perm",
          "codelistNcit": "C66726",
          "codelistNcitAll": [
            "C66726"
          ]
        },
        {
          "order": 23,
          "name": "CMDOSFRQ",
          "label": "Dosing Frequency per Interval",
          "type": "Char",
          "role": "Record Qualifier",
          "core": "Perm",
          "codelistNcit": "C71113",
          "codelistNcitAll": [
            "C71113"
          ]
        },
        {
          "order": 24,
          "name": "CMDOSTOT",
          "label": "Total Daily Dose",
          "type": "Num",
          "role": "Record Qualifier",
          "core": "Perm",
          "codelistNcit": null,
          "codelistNcitAll": []
        },
        {
          "order": 25,
          "name": "CMDOSRGM",
          "label": "Intended Dose Regimen",
          "type": "Char",
          "role": "Record Qualifier",
          "core": "Perm",
          "codelistNcit": null,
          "codelistNcitAll": []
        },
        {
          "order": 26,
          "name": "CMROUTE",
          "label": "Route of Administration",
          "type": "Char",
          "role": "Variable Qualifier",
          "core": "Perm",
          "codelistNcit": "C66729",
          "codelistNcitAll": [
            "C66729"
          ]
        },
        {
          "order": 27,
          "name": "CMADJ",
          "label": "Reason for Dose Adjustment",
          "type": "Char",
          "role": "Record Qualifier",
          "core": "Perm",
          "codelistNcit": null,
          "codelistNcitAll": []
        },
        {
          "order": 28,
          "name": "CMRSDISC",
          "label": "Reason the Intervention Was Discontinued",
          "type": "Char",
          "role": "Record Qualifier",
          "core": "Perm",
          "codelistNcit": null,
          "codelistNcitAll": []
        },
        {
          "order": 29,
          "name": "TAETORD",
          "label": "Planned Order of Element within Arm",
          "type": "Num",
          "role": "Timing",
          "core": "Perm",
          "codelistNcit": null,
          "codelistNcitAll": []
        },
        {
          "order": 30,
          "name": "EPOCH",
          "label": "Epoch",
          "type": "Char",
          "role": "Timing",
          "core": "Perm",
          "codelistNcit": "C99079",
          "codelistNcitAll": [
            "C99079"
          ]
        },
        {
          "order": 31,
          "name": "CMSTDTC",
          "label": "Start Date/Time of Medication",
          "type": "Char",
          "role": "Timing",
          "core": "Perm",
          "codelistNcit": null,
          "codelistNcitAll": []
        },
        {
          "order": 32,
          "name": "CMENDTC",
          "label": "End Date/Time of Medication",
          "type": "Char",
          "role": "Timing",
          "core": "Perm",
          "codelistNcit": null,
          "codelistNcitAll": []
        },
        {
          "order": 33,
          "name": "CMSTDY",
          "label": "Study Day of Start of Medication",
          "type": "Num",
          "role": "Timing",
          "core": "Perm",
          "codelistNcit": null,
          "codelistNcitAll": []
        },
        {
          "order": 34,
          "name": "CMENDY",
          "label": "Study Day of End of Medication",
          "type": "Num",
          "role": "Timing",
          "core": "Perm",
          "codelistNcit": null,
          "codelistNcitAll": []
        },
        {
          "order": 35,
          "name": "CMDUR",
          "label": "Duration",
          "type": "Char",
          "role": "Timing",
          "core": "Perm",
          "codelistNcit": null,
          "codelistNcitAll": []
        },
        {
          "order": 36,
          "name": "CMSTRF",
          "label": "Start Relative to Reference Period",
          "type": "Char",
          "role": "Timing",
          "core": "Perm",
          "codelistNcit": "C66728",
          "codelistNcitAll": [
            "C66728"
          ]
        },
        {
          "order": 37,
          "name": "CMENRF",
          "label": "End Relative to Reference Period",
          "type": "Char",
          "role": "Timing",
          "core": "Perm",
          "codelistNcit": "C66728",
          "codelistNcitAll": [
            "C66728"
          ]
        },
        {
          "order": 38,
          "name": "CMSTRTPT",
          "label": "Start Relative to Reference Time Point",
          "type": "Char",
          "role": "Timing",
          "core": "Perm",
          "codelistNcit": "C66728",
          "codelistNcitAll": [
            "C66728"
          ]
        },
        {
          "order": 39,
          "name": "CMSTTPT",
          "label": "Start Reference Time Point",
          "type": "Char",
          "role": "Timing",
          "core": "Perm",
          "codelistNcit": null,
          "codelistNcitAll": []
        },
        {
          "order": 40,
          "name": "CMENRTPT",
          "label": "End Relative to Reference Time Point",
          "type": "Char",
          "role": "Timing",
          "core": "Perm",
          "codelistNcit": "C66728",
          "codelistNcitAll": [
            "C66728"
          ]
        },
        {
          "order": 41,
          "name": "CMENTPT",
          "label": "End Reference Time Point",
          "type": "Char",
          "role": "Timing",
          "core": "Perm",
          "codelistNcit": null,
          "codelistNcitAll": []
        }
      ]
    },
    "EC": {
      "class": "Interventions",
      "variables": [
        {
          "order": 1,
          "name": "STUDYID",
          "label": "Study Identifier",
          "type": "Char",
          "role": "Identifier",
          "core": "Req",
          "codelistNcit": null,
          "codelistNcitAll": []
        },
        {
          "order": 2,
          "name": "DOMAIN",
          "label": "Domain Abbreviation",
          "type": "Char",
          "role": "Identifier",
          "core": "Req",
          "codelistNcit": null,
          "codelistNcitAll": []
        },
        {
          "order": 3,
          "name": "USUBJID",
          "label": "Unique Subject Identifier",
          "type": "Char",
          "role": "Identifier",
          "core": "Req",
          "codelistNcit": null,
          "codelistNcitAll": []
        },
        {
          "order": 4,
          "name": "ECSEQ",
          "label": "Sequence Number",
          "type": "Num",
          "role": "Identifier",
          "core": "Req",
          "codelistNcit": null,
          "codelistNcitAll": []
        },
        {
          "order": 5,
          "name": "ECGRPID",
          "label": "Group ID",
          "type": "Char",
          "role": "Identifier",
          "core": "Perm",
          "codelistNcit": null,
          "codelistNcitAll": []
        },
        {
          "order": 6,
          "name": "ECREFID",
          "label": "Reference ID",
          "type": "Char",
          "role": "Identifier",
          "core": "Perm",
          "codelistNcit": null,
          "codelistNcitAll": []
        },
        {
          "order": 7,
          "name": "ECSPID",
          "label": "Sponsor-Defined Identifier",
          "type": "Char",
          "role": "Identifier",
          "core": "Perm",
          "codelistNcit": null,
          "codelistNcitAll": []
        },
        {
          "order": 8,
          "name": "ECLNKID",
          "label": "Link ID",
          "type": "Char",
          "role": "Identifier",
          "core": "Perm",
          "codelistNcit": null,
          "codelistNcitAll": []
        },
        {
          "order": 9,
          "name": "ECLNKGRP",
          "label": "Link Group ID",
          "type": "Char",
          "role": "Identifier",
          "core": "Perm",
          "codelistNcit": null,
          "codelistNcitAll": []
        },
        {
          "order": 10,
          "name": "ECTRT",
          "label": "Name of Treatment",
          "type": "Char",
          "role": "Topic",
          "core": "Req",
          "codelistNcit": null,
          "codelistNcitAll": []
        },
        {
          "order": 11,
          "name": "ECMOOD",
          "label": "Mood",
          "type": "Char",
          "role": "Record Qualifier",
          "core": "Perm",
          "codelistNcit": "C125923",
          "codelistNcitAll": [
            "C125923"
          ]
        },
        {
          "order": 12,
          "name": "ECCAT",
          "label": "Category of Treatment",
          "type": "Char",
          "role": "Grouping Qualifier",
          "core": "Perm",
          "codelistNcit": null,
          "codelistNcitAll": []
        },
        {
          "order": 13,
          "name": "ECSCAT",
          "label": "Subcategory of Treatment",
          "type": "Char",
          "role": "Grouping Qualifier",
          "core": "Perm",
          "codelistNcit": null,
          "codelistNcitAll": []
        },
        {
          "order": 14,
          "name": "ECPRESP",
          "label": "Pre-Specified",
          "type": "Char",
          "role": "Variable Qualifier",
          "core": "Perm",
          "codelistNcit": "C66742",
          "codelistNcitAll": [
            "C66742"
          ]
        },
        {
          "order": 15,
          "name": "ECOCCUR",
          "label": "Occurrence",
          "type": "Char",
          "role": "Record Qualifier",
          "core": "Perm",
          "codelistNcit": "C66742",
          "codelistNcitAll": [
            "C66742"
          ]
        },
        {
          "order": 16,
          "name": "ECREASOC",
          "label": "Reason for Occur Value",
          "type": "Char",
          "role": "Record Qualifier",
          "core": "Perm",
          "codelistNcit": null,
          "codelistNcitAll": []
        },
        {
          "order": 17,
          "name": "ECDOSE",
          "label": "Dose",
          "type": "Num",
          "role": "Record Qualifier",
          "core": "Exp",
          "codelistNcit": null,
          "codelistNcitAll": []
        },
        {
          "order": 18,
          "name": "ECDOSTXT",
          "label": "Dose Description",
          "type": "Char",
          "role": "Record Qualifier",
          "core": "Perm",
          "codelistNcit": null,
          "codelistNcitAll": []
        },
        {
          "order": 19,
          "name": "ECDOSU",
          "label": "Dose Units",
          "type": "Char",
          "role": "Variable Qualifier",
          "core": "Exp",
          "codelistNcit": "C71620",
          "codelistNcitAll": [
            "C71620"
          ]
        },
        {
          "order": 20,
          "name": "ECDOSFRM",
          "label": "Dose Form",
          "type": "Char",
          "role": "Variable Qualifier",
          "core": "Exp",
          "codelistNcit": "C66726",
          "codelistNcitAll": [
            "C66726"
          ]
        },
        {
          "order": 21,
          "name": "ECDOSFRQ",
          "label": "Dosing Frequency per Interval",
          "type": "Char",
          "role": "Record Qualifier",
          "core": "Perm",
          "codelistNcit": "C71113",
          "codelistNcitAll": [
            "C71113"
          ]
        },
        {
          "order": 22,
          "name": "ECDOSTOT",
          "label": "Total Daily Dose",
          "type": "Num",
          "role": "Record Qualifier",
          "core": "Perm",
          "codelistNcit": null,
          "codelistNcitAll": []
        },
        {
          "order": 23,
          "name": "ECDOSRGM",
          "label": "Intended Dose Regimen",
          "type": "Char",
          "role": "Record Qualifier",
          "core": "Perm",
          "codelistNcit": null,
          "codelistNcitAll": []
        },
        {
          "order": 24,
          "name": "ECROUTE",
          "label": "Route of Administration",
          "type": "Char",
          "role": "Variable Qualifier",
          "core": "Perm",
          "codelistNcit": "C66729",
          "codelistNcitAll": [
            "C66729"
          ]
        },
        {
          "order": 25,
          "name": "ECLOT",
          "label": "Lot Number",
          "type": "Char",
          "role": "Record Qualifier",
          "core": "Perm",
          "codelistNcit": null,
          "codelistNcitAll": []
        },
        {
          "order": 26,
          "name": "ECLOC",
          "label": "Location of Dose Administration",
          "type": "Char",
          "role": "Record Qualifier",
          "core": "Perm",
          "codelistNcit": "C74456",
          "codelistNcitAll": [
            "C74456"
          ]
        },
        {
          "order": 27,
          "name": "ECLAT",
          "label": "Laterality",
          "type": "Char",
          "role": "Variable Qualifier",
          "core": "Perm",
          "codelistNcit": "C99073",
          "codelistNcitAll": [
            "C99073"
          ]
        },
        {
          "order": 28,
          "name": "ECDIR",
          "label": "Directionality",
          "type": "Char",
          "role": "Variable Qualifier",
          "core": "Perm",
          "codelistNcit": "C99074",
          "codelistNcitAll": [
            "C99074"
          ]
        },
        {
          "order": 29,
          "name": "ECPORTOT",
          "label": "Portion or Totality",
          "type": "Char",
          "role": "Variable Qualifier",
          "core": "Perm",
          "codelistNcit": "C99075",
          "codelistNcitAll": [
            "C99075"
          ]
        },
        {
          "order": 30,
          "name": "ECFAST",
          "label": "Fasting Status",
          "type": "Char",
          "role": "Record Qualifier",
          "core": "Perm",
          "codelistNcit": "C66742",
          "codelistNcitAll": [
            "C66742"
          ]
        },
        {
          "order": 31,
          "name": "ECPSTRG",
          "label": "Pharmaceutical Strength",
          "type": "Num",
          "role": "Record Qualifier",
          "core": "Perm",
          "codelistNcit": null,
          "codelistNcitAll": []
        },
        {
          "order": 32,
          "name": "ECPSTRGU",
          "label": "Pharmaceutical Strength Units",
          "type": "Char",
          "role": "Variable Qualifier",
          "core": "Perm",
          "codelistNcit": "C71620",
          "codelistNcitAll": [
            "C71620"
          ]
        },
        {
          "order": 33,
          "name": "ECADJ",
          "label": "Reason for Dose Adjustment",
          "type": "Char",
          "role": "Record Qualifier",
          "core": "Perm",
          "codelistNcit": null,
          "codelistNcitAll": []
        },
        {
          "order": 34,
          "name": "TAETORD",
          "label": "Planned Order of Element within Arm",
          "type": "Num",
          "role": "Timing",
          "core": "Perm",
          "codelistNcit": null,
          "codelistNcitAll": []
        },
        {
          "order": 35,
          "name": "EPOCH",
          "label": "Epoch",
          "type": "Char",
          "role": "Timing",
          "core": "Perm",
          "codelistNcit": "C99079",
          "codelistNcitAll": [
            "C99079"
          ]
        },
        {
          "order": 36,
          "name": "ECSTDTC",
          "label": "Start Date/Time of Treatment",
          "type": "Char",
          "role": "Timing",
          "core": "Exp",
          "codelistNcit": null,
          "codelistNcitAll": []
        },
        {
          "order": 37,
          "name": "ECENDTC",
          "label": "End Date/Time of Treatment",
          "type": "Char",
          "role": "Timing",
          "core": "Exp",
          "codelistNcit": null,
          "codelistNcitAll": []
        },
        {
          "order": 38,
          "name": "ECSTDY",
          "label": "Study Day of Start of Treatment",
          "type": "Num",
          "role": "Timing",
          "core": "Perm",
          "codelistNcit": null,
          "codelistNcitAll": []
        },
        {
          "order": 39,
          "name": "ECENDY",
          "label": "Study Day of End of Treatment",
          "type": "Num",
          "role": "Timing",
          "core": "Perm",
          "codelistNcit": null,
          "codelistNcitAll": []
        },
        {
          "order": 40,
          "name": "ECDUR",
          "label": "Duration of Treatment",
          "type": "Char",
          "role": "Timing",
          "core": "Perm",
          "codelistNcit": null,
          "codelistNcitAll": []
        },
        {
          "order": 41,
          "name": "ECTPT",
          "label": "Planned Time Point Name",
          "type": "Char",
          "role": "Timing",
          "core": "Perm",
          "codelistNcit": null,
          "codelistNcitAll": []
        },
        {
          "order": 42,
          "name": "ECTPTNUM",
          "label": "Planned Time Point Number",
          "type": "Num",
          "role": "Timing",
          "core": "Perm",
          "codelistNcit": null,
          "codelistNcitAll": []
        },
        {
          "order": 43,
          "name": "ECELTM",
          "label": "Planned Elapsed Time from Time Point Ref",
          "type": "Char",
          "role": "Timing",
          "core": "Perm",
          "codelistNcit": null,
          "codelistNcitAll": []
        },
        {
          "order": 44,
          "name": "ECTPTREF",
          "label": "Time Point Reference",
          "type": "Char",
          "role": "Timing",
          "core": "Perm",
          "codelistNcit": null,
          "codelistNcitAll": []
        },
        {
          "order": 45,
          "name": "ECRFTDTC",
          "label": "Date/Time of Reference Time Point",
          "type": "Char",
          "role": "Timing",
          "core": "Perm",
          "codelistNcit": null,
          "codelistNcitAll": []
        }
      ]
    },
    "EX": {
      "class": "Interventions",
      "variables": [
        {
          "order": 1,
          "name": "STUDYID",
          "label": "Study Identifier",
          "type": "Char",
          "role": "Identifier",
          "core": "Req",
          "codelistNcit": null,
          "codelistNcitAll": []
        },
        {
          "order": 2,
          "name": "DOMAIN",
          "label": "Domain Abbreviation",
          "type": "Char",
          "role": "Identifier",
          "core": "Req",
          "codelistNcit": null,
          "codelistNcitAll": []
        },
        {
          "order": 3,
          "name": "USUBJID",
          "label": "Unique Subject Identifier",
          "type": "Char",
          "role": "Identifier",
          "core": "Req",
          "codelistNcit": null,
          "codelistNcitAll": []
        },
        {
          "order": 4,
          "name": "EXSEQ",
          "label": "Sequence Number",
          "type": "Num",
          "role": "Identifier",
          "core": "Req",
          "codelistNcit": null,
          "codelistNcitAll": []
        },
        {
          "order": 5,
          "name": "EXGRPID",
          "label": "Group ID",
          "type": "Char",
          "role": "Identifier",
          "core": "Perm",
          "codelistNcit": null,
          "codelistNcitAll": []
        },
        {
          "order": 6,
          "name": "EXREFID",
          "label": "Reference ID",
          "type": "Char",
          "role": "Identifier",
          "core": "Perm",
          "codelistNcit": null,
          "codelistNcitAll": []
        },
        {
          "order": 7,
          "name": "EXSPID",
          "label": "Sponsor-Defined Identifier",
          "type": "Char",
          "role": "Identifier",
          "core": "Perm",
          "codelistNcit": null,
          "codelistNcitAll": []
        },
        {
          "order": 8,
          "name": "EXLNKID",
          "label": "Link ID",
          "type": "Char",
          "role": "Identifier",
          "core": "Perm",
          "codelistNcit": null,
          "codelistNcitAll": []
        },
        {
          "order": 9,
          "name": "EXLNKGRP",
          "label": "Link Group ID",
          "type": "Char",
          "role": "Identifier",
          "core": "Perm",
          "codelistNcit": null,
          "codelistNcitAll": []
        },
        {
          "order": 10,
          "name": "EXTRT",
          "label": "Name of Treatment",
          "type": "Char",
          "role": "Topic",
          "core": "Req",
          "codelistNcit": null,
          "codelistNcitAll": []
        },
        {
          "order": 11,
          "name": "EXCAT",
          "label": "Category of Treatment",
          "type": "Char",
          "role": "Grouping Qualifier",
          "core": "Perm",
          "codelistNcit": null,
          "codelistNcitAll": []
        },
        {
          "order": 12,
          "name": "EXSCAT",
          "label": "Subcategory of Treatment",
          "type": "Char",
          "role": "Grouping Qualifier",
          "core": "Perm",
          "codelistNcit": null,
          "codelistNcitAll": []
        },
        {
          "order": 13,
          "name": "EXDOSE",
          "label": "Dose",
          "type": "Num",
          "role": "Record Qualifier",
          "core": "Exp",
          "codelistNcit": null,
          "codelistNcitAll": []
        },
        {
          "order": 14,
          "name": "EXDOSTXT",
          "label": "Dose Description",
          "type": "Char",
          "role": "Record Qualifier",
          "core": "Perm",
          "codelistNcit": null,
          "codelistNcitAll": []
        },
        {
          "order": 15,
          "name": "EXDOSU",
          "label": "Dose Units",
          "type": "Char",
          "role": "Variable Qualifier",
          "core": "Exp",
          "codelistNcit": "C71620",
          "codelistNcitAll": [
            "C71620"
          ]
        },
        {
          "order": 16,
          "name": "EXDOSFRM",
          "label": "Dose Form",
          "type": "Char",
          "role": "Variable Qualifier",
          "core": "Exp",
          "codelistNcit": "C66726",
          "codelistNcitAll": [
            "C66726"
          ]
        },
        {
          "order": 17,
          "name": "EXDOSFRQ",
          "label": "Dosing Frequency per Interval",
          "type": "Char",
          "role": "Record Qualifier",
          "core": "Perm",
          "codelistNcit": "C71113",
          "codelistNcitAll": [
            "C71113"
          ]
        },
        {
          "order": 18,
          "name": "EXDOSRGM",
          "label": "Intended Dose Regimen",
          "type": "Char",
          "role": "Record Qualifier",
          "core": "Perm",
          "codelistNcit": null,
          "codelistNcitAll": []
        },
        {
          "order": 19,
          "name": "EXROUTE",
          "label": "Route of Administration",
          "type": "Char",
          "role": "Variable Qualifier",
          "core": "Perm",
          "codelistNcit": "C66729",
          "codelistNcitAll": [
            "C66729"
          ]
        },
        {
          "order": 20,
          "name": "EXLOT",
          "label": "Lot Number",
          "type": "Char",
          "role": "Record Qualifier",
          "core": "Perm",
          "codelistNcit": null,
          "codelistNcitAll": []
        },
        {
          "order": 21,
          "name": "EXLOC",
          "label": "Location of Dose Administration",
          "type": "Char",
          "role": "Record Qualifier",
          "core": "Perm",
          "codelistNcit": "C74456",
          "codelistNcitAll": [
            "C74456"
          ]
        },
        {
          "order": 22,
          "name": "EXLAT",
          "label": "Laterality",
          "type": "Char",
          "role": "Variable Qualifier",
          "core": "Perm",
          "codelistNcit": "C99073",
          "codelistNcitAll": [
            "C99073"
          ]
        },
        {
          "order": 23,
          "name": "EXDIR",
          "label": "Directionality",
          "type": "Char",
          "role": "Variable Qualifier",
          "core": "Perm",
          "codelistNcit": "C99074",
          "codelistNcitAll": [
            "C99074"
          ]
        },
        {
          "order": 24,
          "name": "EXFAST",
          "label": "Fasting Status",
          "type": "Char",
          "role": "Record Qualifier",
          "core": "Perm",
          "codelistNcit": "C66742",
          "codelistNcitAll": [
            "C66742"
          ]
        },
        {
          "order": 25,
          "name": "EXADJ",
          "label": "Reason for Dose Adjustment",
          "type": "Char",
          "role": "Record Qualifier",
          "core": "Perm",
          "codelistNcit": null,
          "codelistNcitAll": []
        },
        {
          "order": 26,
          "name": "TAETORD",
          "label": "Planned Order of Element within Arm",
          "type": "Num",
          "role": "Timing",
          "core": "Perm",
          "codelistNcit": null,
          "codelistNcitAll": []
        },
        {
          "order": 27,
          "name": "EPOCH",
          "label": "Epoch",
          "type": "Char",
          "role": "Timing",
          "core": "Perm",
          "codelistNcit": "C99079",
          "codelistNcitAll": [
            "C99079"
          ]
        },
        {
          "order": 28,
          "name": "EXSTDTC",
          "label": "Start Date/Time of Treatment",
          "type": "Char",
          "role": "Timing",
          "core": "Exp",
          "codelistNcit": null,
          "codelistNcitAll": []
        },
        {
          "order": 29,
          "name": "EXENDTC",
          "label": "End Date/Time of Treatment",
          "type": "Char",
          "role": "Timing",
          "core": "Exp",
          "codelistNcit": null,
          "codelistNcitAll": []
        },
        {
          "order": 30,
          "name": "EXSTDY",
          "label": "Study Day of Start of Treatment",
          "type": "Num",
          "role": "Timing",
          "core": "Perm",
          "codelistNcit": null,
          "codelistNcitAll": []
        },
        {
          "order": 31,
          "name": "EXENDY",
          "label": "Study Day of End of Treatment",
          "type": "Num",
          "role": "Timing",
          "core": "Perm",
          "codelistNcit": null,
          "codelistNcitAll": []
        },
        {
          "order": 32,
          "name": "EXDUR",
          "label": "Duration of Treatment",
          "type": "Char",
          "role": "Timing",
          "core": "Perm",
          "codelistNcit": null,
          "codelistNcitAll": []
        },
        {
          "order": 33,
          "name": "EXTPT",
          "label": "Planned Time Point Name",
          "type": "Char",
          "role": "Timing",
          "core": "Perm",
          "codelistNcit": null,
          "codelistNcitAll": []
        },
        {
          "order": 34,
          "name": "EXTPTNUM",
          "label": "Planned Time Point Number",
          "type": "Num",
          "role": "Timing",
          "core": "Perm",
          "codelistNcit": null,
          "codelistNcitAll": []
        },
        {
          "order": 35,
          "name": "EXELTM",
          "label": "Planned Elapsed Time from Time Point Ref",
          "type": "Char",
          "role": "Timing",
          "core": "Perm",
          "codelistNcit": null,
          "codelistNcitAll": []
        },
        {
          "order": 36,
          "name": "EXTPTREF",
          "label": "Time Point Reference",
          "type": "Char",
          "role": "Timing",
          "core": "Perm",
          "codelistNcit": null,
          "codelistNcitAll": []
        },
        {
          "order": 37,
          "name": "EXRFTDTC",
          "label": "Date/Time of Reference Time Point",
          "type": "Char",
          "role": "Timing",
          "core": "Perm",
          "codelistNcit": null,
          "codelistNcitAll": []
        }
      ]
    },
    "ML": {
      "class": "Interventions",
      "variables": [
        {
          "order": 1,
          "name": "STUDYID",
          "label": "Study Identifier",
          "type": "Char",
          "role": "Identifier",
          "core": "Req",
          "codelistNcit": null,
          "codelistNcitAll": []
        },
        {
          "order": 2,
          "name": "DOMAIN",
          "label": "Domain Abbreviation",
          "type": "Char",
          "role": "Identifier",
          "core": "Req",
          "codelistNcit": null,
          "codelistNcitAll": []
        },
        {
          "order": 3,
          "name": "USUBJID",
          "label": "Unique Subject Identifier",
          "type": "Char",
          "role": "Identifier",
          "core": "Req",
          "codelistNcit": null,
          "codelistNcitAll": []
        },
        {
          "order": 4,
          "name": "MLSEQ",
          "label": "Sequence Number",
          "type": "Num",
          "role": "Identifier",
          "core": "Req",
          "codelistNcit": null,
          "codelistNcitAll": []
        },
        {
          "order": 5,
          "name": "MLGRPID",
          "label": "Group ID",
          "type": "Char",
          "role": "Identifier",
          "core": "Perm",
          "codelistNcit": null,
          "codelistNcitAll": []
        },
        {
          "order": 6,
          "name": "MLSPID",
          "label": "Sponsor-Defined Identifier",
          "type": "Char",
          "role": "Identifier",
          "core": "Perm",
          "codelistNcit": null,
          "codelistNcitAll": []
        },
        {
          "order": 7,
          "name": "MLTRT",
          "label": "Name of Meal",
          "type": "Char",
          "role": "Topic",
          "core": "Req",
          "codelistNcit": null,
          "codelistNcitAll": []
        },
        {
          "order": 8,
          "name": "MLCAT",
          "label": "Category for Meal",
          "type": "Char",
          "role": "Grouping Qualifier",
          "core": "Perm",
          "codelistNcit": null,
          "codelistNcitAll": []
        },
        {
          "order": 9,
          "name": "MLSCAT",
          "label": "Subcategory for Meal",
          "type": "Char",
          "role": "Grouping Qualifier",
          "core": "Perm",
          "codelistNcit": null,
          "codelistNcitAll": []
        },
        {
          "order": 10,
          "name": "MLPRESP",
          "label": "ML Pre-specified",
          "type": "Char",
          "role": "Variable Qualifier",
          "core": "Perm",
          "codelistNcit": "C66742",
          "codelistNcitAll": [
            "C66742"
          ]
        },
        {
          "order": 11,
          "name": "MLOCCUR",
          "label": "ML Occurrence",
          "type": "Char",
          "role": "Record Qualifier",
          "core": "Perm",
          "codelistNcit": "C66742",
          "codelistNcitAll": [
            "C66742"
          ]
        },
        {
          "order": 12,
          "name": "MLSTAT",
          "label": "Completion Status",
          "type": "Char",
          "role": "Record Qualifier",
          "core": "Perm",
          "codelistNcit": "C66789",
          "codelistNcitAll": [
            "C66789"
          ]
        },
        {
          "order": 13,
          "name": "MLREASND",
          "label": "Reason Meal Not Collected",
          "type": "Char",
          "role": "Record Qualifier",
          "core": "Perm",
          "codelistNcit": null,
          "codelistNcitAll": []
        },
        {
          "order": 14,
          "name": "MLDOSE",
          "label": "Dose",
          "type": "Num",
          "role": "Record Qualifier",
          "core": "Perm",
          "codelistNcit": null,
          "codelistNcitAll": []
        },
        {
          "order": 15,
          "name": "MLDOSTXT",
          "label": "Dose Description",
          "type": "Char",
          "role": "Record Qualifier",
          "core": "Perm",
          "codelistNcit": null,
          "codelistNcitAll": []
        },
        {
          "order": 16,
          "name": "MLDOSU",
          "label": "Dose Units",
          "type": "Char",
          "role": "Variable Qualifier",
          "core": "Perm",
          "codelistNcit": "C71620",
          "codelistNcitAll": [
            "C71620"
          ]
        },
        {
          "order": 17,
          "name": "MLDOSFRM",
          "label": "Dose Form",
          "type": "Char",
          "role": "Variable Qualifier",
          "core": "Perm",
          "codelistNcit": "C66726",
          "codelistNcitAll": [
            "C66726"
          ]
        },
        {
          "order": 18,
          "name": "VISITNUM",
          "label": "Visit Number",
          "type": "Num",
          "role": "Timing",
          "core": "Perm",
          "codelistNcit": null,
          "codelistNcitAll": []
        },
        {
          "order": 19,
          "name": "VISIT",
          "label": "Visit Name",
          "type": "Char",
          "role": "Timing",
          "core": "Perm",
          "codelistNcit": null,
          "codelistNcitAll": []
        },
        {
          "order": 20,
          "name": "VISITDY",
          "label": "Planned Study Day of Visit",
          "type": "Num",
          "role": "Timing",
          "core": "Perm",
          "codelistNcit": null,
          "codelistNcitAll": []
        },
        {
          "order": 21,
          "name": "TAETORD",
          "label": "Planned Order of Element within Arm",
          "type": "Num",
          "role": "Timing",
          "core": "Perm",
          "codelistNcit": null,
          "codelistNcitAll": []
        },
        {
          "order": 22,
          "name": "EPOCH",
          "label": "Epoch",
          "type": "Char",
          "role": "Timing",
          "core": "Perm",
          "codelistNcit": "C99079",
          "codelistNcitAll": [
            "C99079"
          ]
        },
        {
          "order": 23,
          "name": "MLDTC",
          "label": "Date/Time of Collection",
          "type": "Char",
          "role": "Timing",
          "core": "Perm",
          "codelistNcit": null,
          "codelistNcitAll": []
        },
        {
          "order": 24,
          "name": "MLSTDTC",
          "label": "Start Date/Time of Meal",
          "type": "Char",
          "role": "Timing",
          "core": "Perm",
          "codelistNcit": null,
          "codelistNcitAll": []
        },
        {
          "order": 25,
          "name": "MLENDTC",
          "label": "End Date/Time of Meal",
          "type": "Char",
          "role": "Timing",
          "core": "Perm",
          "codelistNcit": null,
          "codelistNcitAll": []
        },
        {
          "order": 26,
          "name": "MLDY",
          "label": "Study Day of Visit/Collection/Exam",
          "type": "Num",
          "role": "Timing",
          "core": "Perm",
          "codelistNcit": null,
          "codelistNcitAll": []
        },
        {
          "order": 27,
          "name": "MLSTDY",
          "label": "Study Day of Start of Meal",
          "type": "Num",
          "role": "Timing",
          "core": "Perm",
          "codelistNcit": null,
          "codelistNcitAll": []
        },
        {
          "order": 28,
          "name": "MLENDY",
          "label": "Study Day of End of Meal",
          "type": "Num",
          "role": "Timing",
          "core": "Perm",
          "codelistNcit": null,
          "codelistNcitAll": []
        },
        {
          "order": 29,
          "name": "MLDUR",
          "label": "Duration of Meal",
          "type": "Char",
          "role": "Timing",
          "core": "Perm",
          "codelistNcit": null,
          "codelistNcitAll": []
        },
        {
          "order": 30,
          "name": "MLTPT",
          "label": "Planned Time Point Name",
          "type": "Char",
          "role": "Timing",
          "core": "Perm",
          "codelistNcit": null,
          "codelistNcitAll": []
        },
        {
          "order": 31,
          "name": "MLTPTNUM",
          "label": "Planned Time Point Number",
          "type": "Num",
          "role": "Timing",
          "core": "Perm",
          "codelistNcit": null,
          "codelistNcitAll": []
        },
        {
          "order": 32,
          "name": "MLELTM",
          "label": "Planned Elapsed Time from Time Point Ref",
          "type": "Char",
          "role": "Timing",
          "core": "Perm",
          "codelistNcit": null,
          "codelistNcitAll": []
        },
        {
          "order": 33,
          "name": "MLTPTREF",
          "label": "Time Point Reference",
          "type": "Char",
          "role": "Timing",
          "core": "Perm",
          "codelistNcit": null,
          "codelistNcitAll": []
        },
        {
          "order": 34,
          "name": "MLRFTDTC",
          "label": "Date/Time of Reference Time Point",
          "type": "Char",
          "role": "Timing",
          "core": "Perm",
          "codelistNcit": null,
          "codelistNcitAll": []
        },
        {
          "order": 35,
          "name": "MIDS",
          "label": "Disease Milestone Instance Name",
          "type": "Char",
          "role": "Timing",
          "core": "Perm",
          "codelistNcit": null,
          "codelistNcitAll": []
        },
        {
          "order": 36,
          "name": "RELMIDS",
          "label": "Temporal Relation to Milestone Instance",
          "type": "Char",
          "role": "Timing",
          "core": "Perm",
          "codelistNcit": null,
          "codelistNcitAll": []
        },
        {
          "order": 37,
          "name": "MIDSDTC",
          "label": "Disease Milestone Instance Date/Time",
          "type": "Char",
          "role": "Timing",
          "core": "Perm",
          "codelistNcit": null,
          "codelistNcitAll": []
        }
      ]
    },
    "PR": {
      "class": "Interventions",
      "variables": [
        {
          "order": 1,
          "name": "STUDYID",
          "label": "Study Identifier",
          "type": "Char",
          "role": "Identifier",
          "core": "Req",
          "codelistNcit": null,
          "codelistNcitAll": []
        },
        {
          "order": 2,
          "name": "DOMAIN",
          "label": "Domain Abbreviation",
          "type": "Char",
          "role": "Identifier",
          "core": "Req",
          "codelistNcit": null,
          "codelistNcitAll": []
        },
        {
          "order": 3,
          "name": "USUBJID",
          "label": "Unique Subject Identifier",
          "type": "Char",
          "role": "Identifier",
          "core": "Req",
          "codelistNcit": null,
          "codelistNcitAll": []
        },
        {
          "order": 4,
          "name": "PRSEQ",
          "label": "Sequence Number",
          "type": "Num",
          "role": "Identifier",
          "core": "Req",
          "codelistNcit": null,
          "codelistNcitAll": []
        },
        {
          "order": 5,
          "name": "PRGRPID",
          "label": "Group ID",
          "type": "Char",
          "role": "Identifier",
          "core": "Perm",
          "codelistNcit": null,
          "codelistNcitAll": []
        },
        {
          "order": 6,
          "name": "PRSPID",
          "label": "Sponsor-Defined Identifier",
          "type": "Char",
          "role": "Identifier",
          "core": "Perm",
          "codelistNcit": null,
          "codelistNcitAll": []
        },
        {
          "order": 7,
          "name": "PRLNKID",
          "label": "Link ID",
          "type": "Char",
          "role": "Identifier",
          "core": "Perm",
          "codelistNcit": null,
          "codelistNcitAll": []
        },
        {
          "order": 8,
          "name": "PRLNKGRP",
          "label": "Link Group ID",
          "type": "Char",
          "role": "Identifier",
          "core": "Perm",
          "codelistNcit": null,
          "codelistNcitAll": []
        },
        {
          "order": 9,
          "name": "PRTRT",
          "label": "Reported Name of Procedure",
          "type": "Char",
          "role": "Topic",
          "core": "Req",
          "codelistNcit": null,
          "codelistNcitAll": []
        },
        {
          "order": 10,
          "name": "PRDECOD",
          "label": "Standardized Procedure Name",
          "type": "Char",
          "role": "Synonym Qualifier",
          "core": "Perm",
          "codelistNcit": "C101858",
          "codelistNcitAll": [
            "C101858"
          ]
        },
        {
          "order": 11,
          "name": "PRCAT",
          "label": "Category",
          "type": "Char",
          "role": "Grouping Qualifier",
          "core": "Perm",
          "codelistNcit": null,
          "codelistNcitAll": []
        },
        {
          "order": 12,
          "name": "PRSCAT",
          "label": "Subcategory",
          "type": "Char",
          "role": "Grouping Qualifier",
          "core": "Perm",
          "codelistNcit": null,
          "codelistNcitAll": []
        },
        {
          "order": 13,
          "name": "PRPRESP",
          "label": "Pre-specified",
          "type": "Char",
          "role": "Variable Qualifier",
          "core": "Perm",
          "codelistNcit": "C66742",
          "codelistNcitAll": [
            "C66742"
          ]
        },
        {
          "order": 14,
          "name": "PROCCUR",
          "label": "Occurrence",
          "type": "Char",
          "role": "Record Qualifier",
          "core": "Perm",
          "codelistNcit": "C66742",
          "codelistNcitAll": [
            "C66742"
          ]
        },
        {
          "order": 15,
          "name": "PRINDC",
          "label": "Indication",
          "type": "Char",
          "role": "Record Qualifier",
          "core": "Perm",
          "codelistNcit": null,
          "codelistNcitAll": []
        },
        {
          "order": 16,
          "name": "PRDOSE",
          "label": "Dose",
          "type": "Num",
          "role": "Record Qualifier",
          "core": "Perm",
          "codelistNcit": null,
          "codelistNcitAll": []
        },
        {
          "order": 17,
          "name": "PRDOSTXT",
          "label": "Dose Description",
          "type": "Char",
          "role": "Record Qualifier",
          "core": "Perm",
          "codelistNcit": null,
          "codelistNcitAll": []
        },
        {
          "order": 18,
          "name": "PRDOSU",
          "label": "Dose Units",
          "type": "Char",
          "role": "Variable Qualifier",
          "core": "Perm",
          "codelistNcit": "C71620",
          "codelistNcitAll": [
            "C71620"
          ]
        },
        {
          "order": 19,
          "name": "PRDOSFRM",
          "label": "Dose Form",
          "type": "Char",
          "role": "Variable Qualifier",
          "core": "Perm",
          "codelistNcit": "C66726",
          "codelistNcitAll": [
            "C66726"
          ]
        },
        {
          "order": 20,
          "name": "PRDOSFRQ",
          "label": "Dosing Frequency per Interval",
          "type": "Char",
          "role": "Record Qualifier",
          "core": "Perm",
          "codelistNcit": "C71113",
          "codelistNcitAll": [
            "C71113"
          ]
        },
        {
          "order": 21,
          "name": "PRDOSRGM",
          "label": "Intended Dose Regimen",
          "type": "Char",
          "role": "Record Qualifier",
          "core": "Perm",
          "codelistNcit": null,
          "codelistNcitAll": []
        },
        {
          "order": 22,
          "name": "PRROUTE",
          "label": "Route of Administration",
          "type": "Char",
          "role": "Variable Qualifier",
          "core": "Perm",
          "codelistNcit": "C66729",
          "codelistNcitAll": [
            "C66729"
          ]
        },
        {
          "order": 23,
          "name": "PRLOC",
          "label": "Location of Procedure",
          "type": "Char",
          "role": "Record Qualifier",
          "core": "Perm",
          "codelistNcit": "C74456",
          "codelistNcitAll": [
            "C74456"
          ]
        },
        {
          "order": 24,
          "name": "PRLAT",
          "label": "Laterality",
          "type": "Char",
          "role": "Variable Qualifier",
          "core": "Perm",
          "codelistNcit": "C99073",
          "codelistNcitAll": [
            "C99073"
          ]
        },
        {
          "order": 25,
          "name": "PRDIR",
          "label": "Directionality",
          "type": "Char",
          "role": "Variable Qualifier",
          "core": "Perm",
          "codelistNcit": "C99074",
          "codelistNcitAll": [
            "C99074"
          ]
        },
        {
          "order": 26,
          "name": "PRPORTOT",
          "label": "Portion or Totality",
          "type": "Char",
          "role": "Variable Qualifier",
          "core": "Perm",
          "codelistNcit": "C99075",
          "codelistNcitAll": [
            "C99075"
          ]
        },
        {
          "order": 27,
          "name": "VISITNUM",
          "label": "Visit Number",
          "type": "Num",
          "role": "Timing",
          "core": "Perm",
          "codelistNcit": null,
          "codelistNcitAll": []
        },
        {
          "order": 28,
          "name": "VISIT",
          "label": "Visit Name",
          "type": "Char",
          "role": "Timing",
          "core": "Perm",
          "codelistNcit": null,
          "codelistNcitAll": []
        },
        {
          "order": 29,
          "name": "VISITDY",
          "label": "Planned Study Day of Visit",
          "type": "Num",
          "role": "Timing",
          "core": "Perm",
          "codelistNcit": null,
          "codelistNcitAll": []
        },
        {
          "order": 30,
          "name": "TAETORD",
          "label": "Planned Order of Element within Arm",
          "type": "Num",
          "role": "Timing",
          "core": "Perm",
          "codelistNcit": null,
          "codelistNcitAll": []
        },
        {
          "order": 31,
          "name": "EPOCH",
          "label": "Epoch",
          "type": "Char",
          "role": "Timing",
          "core": "Perm",
          "codelistNcit": "C99079",
          "codelistNcitAll": [
            "C99079"
          ]
        },
        {
          "order": 32,
          "name": "PRSTDTC",
          "label": "Start Date/Time of Procedure",
          "type": "Char",
          "role": "Timing",
          "core": "Exp",
          "codelistNcit": null,
          "codelistNcitAll": []
        },
        {
          "order": 33,
          "name": "PRENDTC",
          "label": "End Date/Time of Procedure",
          "type": "Char",
          "role": "Timing",
          "core": "Perm",
          "codelistNcit": null,
          "codelistNcitAll": []
        },
        {
          "order": 34,
          "name": "PRSTDY",
          "label": "Study Day of Start of Procedure",
          "type": "Num",
          "role": "Timing",
          "core": "Perm",
          "codelistNcit": null,
          "codelistNcitAll": []
        },
        {
          "order": 35,
          "name": "PRENDY",
          "label": "Study Day of End of Procedure",
          "type": "Num",
          "role": "Timing",
          "core": "Perm",
          "codelistNcit": null,
          "codelistNcitAll": []
        },
        {
          "order": 36,
          "name": "PRDUR",
          "label": "Duration of Procedure",
          "type": "Char",
          "role": "Timing",
          "core": "Perm",
          "codelistNcit": null,
          "codelistNcitAll": []
        },
        {
          "order": 37,
          "name": "PRTPT",
          "label": "Planned Time Point Name",
          "type": "Char",
          "role": "Timing",
          "core": "Perm",
          "codelistNcit": null,
          "codelistNcitAll": []
        },
        {
          "order": 38,
          "name": "PRTPTNUM",
          "label": "Planned Time Point Number",
          "type": "Num",
          "role": "Timing",
          "core": "Perm",
          "codelistNcit": null,
          "codelistNcitAll": []
        },
        {
          "order": 39,
          "name": "PRELTM",
          "label": "Planned Elapsed Time from Time Point Ref",
          "type": "Char",
          "role": "Timing",
          "core": "Perm",
          "codelistNcit": null,
          "codelistNcitAll": []
        },
        {
          "order": 40,
          "name": "PRTPTREF",
          "label": "Time Point Reference",
          "type": "Char",
          "role": "Timing",
          "core": "Perm",
          "codelistNcit": null,
          "codelistNcitAll": []
        },
        {
          "order": 41,
          "name": "PRRFTDTC",
          "label": "Date/Time of Reference Time Point",
          "type": "Char",
          "role": "Timing",
          "core": "Perm",
          "codelistNcit": null,
          "codelistNcitAll": []
        },
        {
          "order": 42,
          "name": "PRSTRTPT",
          "label": "Start Relative to Reference Time Point",
          "type": "Char",
          "role": "Timing",
          "core": "Perm",
          "codelistNcit": "C66728",
          "codelistNcitAll": [
            "C66728"
          ]
        },
        {
          "order": 43,
          "name": "PRSTTPT",
          "label": "Start Reference Time Point",
          "type": "Char",
          "role": "Timing",
          "core": "Perm",
          "codelistNcit": null,
          "codelistNcitAll": []
        },
        {
          "order": 44,
          "name": "PRENRTPT",
          "label": "End Relative to Reference Time Point",
          "type": "Char",
          "role": "Timing",
          "core": "Perm",
          "codelistNcit": "C66728",
          "codelistNcitAll": [
            "C66728"
          ]
        },
        {
          "order": 45,
          "name": "PRENTPT",
          "label": "End Reference Time Point",
          "type": "Char",
          "role": "Timing",
          "core": "Perm",
          "codelistNcit": null,
          "codelistNcitAll": []
        }
      ]
    },
    "SU": {
      "class": "Interventions",
      "variables": [
        {
          "order": 1,
          "name": "STUDYID",
          "label": "Study Identifier",
          "type": "Char",
          "role": "Identifier",
          "core": "Req",
          "codelistNcit": null,
          "codelistNcitAll": []
        },
        {
          "order": 2,
          "name": "DOMAIN",
          "label": "Domain Abbreviation",
          "type": "Char",
          "role": "Identifier",
          "core": "Req",
          "codelistNcit": null,
          "codelistNcitAll": []
        },
        {
          "order": 3,
          "name": "USUBJID",
          "label": "Unique Subject Identifier",
          "type": "Char",
          "role": "Identifier",
          "core": "Req",
          "codelistNcit": null,
          "codelistNcitAll": []
        },
        {
          "order": 4,
          "name": "SUSEQ",
          "label": "Sequence Number",
          "type": "Num",
          "role": "Identifier",
          "core": "Req",
          "codelistNcit": null,
          "codelistNcitAll": []
        },
        {
          "order": 5,
          "name": "SUGRPID",
          "label": "Group ID",
          "type": "Char",
          "role": "Identifier",
          "core": "Perm",
          "codelistNcit": null,
          "codelistNcitAll": []
        },
        {
          "order": 6,
          "name": "SUSPID",
          "label": "Sponsor-Defined Identifier",
          "type": "Char",
          "role": "Identifier",
          "core": "Perm",
          "codelistNcit": null,
          "codelistNcitAll": []
        },
        {
          "order": 7,
          "name": "SUTRT",
          "label": "Reported Name of Substance",
          "type": "Char",
          "role": "Topic",
          "core": "Req",
          "codelistNcit": null,
          "codelistNcitAll": []
        },
        {
          "order": 8,
          "name": "SUMODIFY",
          "label": "Modified Substance Name",
          "type": "Char",
          "role": "Synonym Qualifier",
          "core": "Perm",
          "codelistNcit": null,
          "codelistNcitAll": []
        },
        {
          "order": 9,
          "name": "SUDECOD",
          "label": "Standardized Substance Name",
          "type": "Char",
          "role": "Synonym Qualifier",
          "core": "Perm",
          "codelistNcit": null,
          "codelistNcitAll": []
        },
        {
          "order": 10,
          "name": "SUCAT",
          "label": "Category for Substance Use",
          "type": "Char",
          "role": "Grouping Qualifier",
          "core": "Perm",
          "codelistNcit": null,
          "codelistNcitAll": []
        },
        {
          "order": 11,
          "name": "SUSCAT",
          "label": "Subcategory for Substance Use",
          "type": "Char",
          "role": "Grouping Qualifier",
          "core": "Perm",
          "codelistNcit": null,
          "codelistNcitAll": []
        },
        {
          "order": 12,
          "name": "SUPRESP",
          "label": "SU Pre-Specified",
          "type": "Char",
          "role": "Variable Qualifier",
          "core": "Perm",
          "codelistNcit": "C66742",
          "codelistNcitAll": [
            "C66742"
          ]
        },
        {
          "order": 13,
          "name": "SUOCCUR",
          "label": "SU Occurrence",
          "type": "Char",
          "role": "Record Qualifier",
          "core": "Perm",
          "codelistNcit": "C66742",
          "codelistNcitAll": [
            "C66742"
          ]
        },
        {
          "order": 14,
          "name": "SUSTAT",
          "label": "Completion Status",
          "type": "Char",
          "role": "Record Qualifier",
          "core": "Perm",
          "codelistNcit": "C66789",
          "codelistNcitAll": [
            "C66789"
          ]
        },
        {
          "order": 15,
          "name": "SUREASND",
          "label": "Reason Substance Use Not Collected",
          "type": "Char",
          "role": "Record Qualifier",
          "core": "Perm",
          "codelistNcit": null,
          "codelistNcitAll": []
        },
        {
          "order": 16,
          "name": "SUCLAS",
          "label": "Substance Use Class",
          "type": "Char",
          "role": "Variable Qualifier",
          "core": "Perm",
          "codelistNcit": null,
          "codelistNcitAll": []
        },
        {
          "order": 17,
          "name": "SUCLASCD",
          "label": "Substance Use Class Code",
          "type": "Char",
          "role": "Variable Qualifier",
          "core": "Perm",
          "codelistNcit": null,
          "codelistNcitAll": []
        },
        {
          "order": 18,
          "name": "SUDOSE",
          "label": "Substance Use Consumption",
          "type": "Num",
          "role": "Record Qualifier",
          "core": "Perm",
          "codelistNcit": null,
          "codelistNcitAll": []
        },
        {
          "order": 19,
          "name": "SUDOSTXT",
          "label": "Substance Use Consumption Text",
          "type": "Char",
          "role": "Record Qualifier",
          "core": "Perm",
          "codelistNcit": null,
          "codelistNcitAll": []
        },
        {
          "order": 20,
          "name": "SUDOSU",
          "label": "Consumption Units",
          "type": "Char",
          "role": "Variable Qualifier",
          "core": "Perm",
          "codelistNcit": "C71620",
          "codelistNcitAll": [
            "C71620"
          ]
        },
        {
          "order": 21,
          "name": "SUDOSFRM",
          "label": "Dose Form",
          "type": "Char",
          "role": "Variable Qualifier",
          "core": "Perm",
          "codelistNcit": "C66726",
          "codelistNcitAll": [
            "C66726"
          ]
        },
        {
          "order": 22,
          "name": "SUDOSFRQ",
          "label": "Use Frequency Per Interval",
          "type": "Char",
          "role": "Variable Qualifier",
          "core": "Perm",
          "codelistNcit": "C71113",
          "codelistNcitAll": [
            "C71113"
          ]
        },
        {
          "order": 23,
          "name": "SUDOSTOT",
          "label": "Total Daily Consumption",
          "type": "Num",
          "role": "Record Qualifier",
          "core": "Perm",
          "codelistNcit": null,
          "codelistNcitAll": []
        },
        {
          "order": 24,
          "name": "SUROUTE",
          "label": "Route of Administration",
          "type": "Char",
          "role": "Variable Qualifier",
          "core": "Perm",
          "codelistNcit": "C66729",
          "codelistNcitAll": [
            "C66729"
          ]
        },
        {
          "order": 25,
          "name": "TAETORD",
          "label": "Planned Order of Element within Arm",
          "type": "Num",
          "role": "Timing",
          "core": "Perm",
          "codelistNcit": null,
          "codelistNcitAll": []
        },
        {
          "order": 26,
          "name": "EPOCH",
          "label": "Epoch",
          "type": "Char",
          "role": "Timing",
          "core": "Perm",
          "codelistNcit": "C99079",
          "codelistNcitAll": [
            "C99079"
          ]
        },
        {
          "order": 27,
          "name": "SUSTDTC",
          "label": "Start Date/Time of Substance Use",
          "type": "Char",
          "role": "Timing",
          "core": "Perm",
          "codelistNcit": null,
          "codelistNcitAll": []
        },
        {
          "order": 28,
          "name": "SUENDTC",
          "label": "End Date/Time of Substance Use",
          "type": "Char",
          "role": "Timing",
          "core": "Perm",
          "codelistNcit": null,
          "codelistNcitAll": []
        },
        {
          "order": 29,
          "name": "SUSTDY",
          "label": "Study Day of Start of Substance Use",
          "type": "Num",
          "role": "Timing",
          "core": "Perm",
          "codelistNcit": null,
          "codelistNcitAll": []
        },
        {
          "order": 30,
          "name": "SUENDY",
          "label": "Study Day of End of Substance Use",
          "type": "Num",
          "role": "Timing",
          "core": "Perm",
          "codelistNcit": null,
          "codelistNcitAll": []
        },
        {
          "order": 31,
          "name": "SUDUR",
          "label": "Duration of Substance Use",
          "type": "Char",
          "role": "Timing",
          "core": "Perm",
          "codelistNcit": null,
          "codelistNcitAll": []
        },
        {
          "order": 32,
          "name": "SUSTRF",
          "label": "Start Relative to Reference Period",
          "type": "Char",
          "role": "Timing",
          "core": "Perm",
          "codelistNcit": "C66728",
          "codelistNcitAll": [
            "C66728"
          ]
        },
        {
          "order": 33,
          "name": "SUENRF",
          "label": "End Relative to Reference Period",
          "type": "Char",
          "role": "Timing",
          "core": "Perm",
          "codelistNcit": "C66728",
          "codelistNcitAll": [
            "C66728"
          ]
        },
        {
          "order": 34,
          "name": "SUSTRTPT",
          "label": "Start Relative to Reference Time Point",
          "type": "Char",
          "role": "Timing",
          "core": "Perm",
          "codelistNcit": "C66728",
          "codelistNcitAll": [
            "C66728"
          ]
        },
        {
          "order": 35,
          "name": "SUSTTPT",
          "label": "Start Reference Time Point",
          "type": "Char",
          "role": "Timing",
          "core": "Perm",
          "codelistNcit": null,
          "codelistNcitAll": []
        },
        {
          "order": 36,
          "name": "SUENRTPT",
          "label": "End Relative to Reference Time Point",
          "type": "Char",
          "role": "Timing",
          "core": "Perm",
          "codelistNcit": "C66728",
          "codelistNcitAll": [
            "C66728"
          ]
        },
        {
          "order": 37,
          "name": "SUENTPT",
          "label": "End Reference Time Point",
          "type": "Char",
          "role": "Timing",
          "core": "Perm",
          "codelistNcit": null,
          "codelistNcitAll": []
        }
      ]
    },
    "AE": {
      "class": "Events",
      "variables": [
        {
          "order": 1,
          "name": "STUDYID",
          "label": "Study Identifier",
          "type": "Char",
          "role": "Identifier",
          "core": "Req",
          "codelistNcit": null,
          "codelistNcitAll": []
        },
        {
          "order": 2,
          "name": "DOMAIN",
          "label": "Domain Abbreviation",
          "type": "Char",
          "role": "Identifier",
          "core": "Req",
          "codelistNcit": null,
          "codelistNcitAll": []
        },
        {
          "order": 3,
          "name": "USUBJID",
          "label": "Unique Subject Identifier",
          "type": "Char",
          "role": "Identifier",
          "core": "Req",
          "codelistNcit": null,
          "codelistNcitAll": []
        },
        {
          "order": 4,
          "name": "SPDEVID",
          "label": "Sponsor Device Identifier",
          "type": "Char",
          "role": "Identifier",
          "core": "Perm",
          "codelistNcit": null,
          "codelistNcitAll": []
        },
        {
          "order": 5,
          "name": "AESEQ",
          "label": "Sequence Number",
          "type": "Num",
          "role": "Identifier",
          "core": "Req",
          "codelistNcit": null,
          "codelistNcitAll": []
        },
        {
          "order": 6,
          "name": "AEGRPID",
          "label": "Group ID",
          "type": "Char",
          "role": "Identifier",
          "core": "Perm",
          "codelistNcit": null,
          "codelistNcitAll": []
        },
        {
          "order": 7,
          "name": "AEREFID",
          "label": "Reference ID",
          "type": "Char",
          "role": "Identifier",
          "core": "Perm",
          "codelistNcit": null,
          "codelistNcitAll": []
        },
        {
          "order": 8,
          "name": "AESPID",
          "label": "Sponsor-Defined Identifier",
          "type": "Char",
          "role": "Identifier",
          "core": "Perm",
          "codelistNcit": null,
          "codelistNcitAll": []
        },
        {
          "order": 9,
          "name": "AETERM",
          "label": "Reported Term for the Adverse Event",
          "type": "Char",
          "role": "Topic",
          "core": "Req",
          "codelistNcit": null,
          "codelistNcitAll": []
        },
        {
          "order": 10,
          "name": "AEMODIFY",
          "label": "Modified Reported Term",
          "type": "Char",
          "role": "Synonym Qualifier",
          "core": "Perm",
          "codelistNcit": null,
          "codelistNcitAll": []
        },
        {
          "order": 11,
          "name": "AELLT",
          "label": "Lowest Level Term",
          "type": "Char",
          "role": "Variable Qualifier",
          "core": "Exp",
          "codelistNcit": null,
          "codelistNcitAll": []
        },
        {
          "order": 12,
          "name": "AELLTCD",
          "label": "Lowest Level Term Code",
          "type": "Num",
          "role": "Variable Qualifier",
          "core": "Exp",
          "codelistNcit": null,
          "codelistNcitAll": []
        },
        {
          "order": 13,
          "name": "AEDECOD",
          "label": "Dictionary-Derived Term",
          "type": "Char",
          "role": "Synonym Qualifier",
          "core": "Req",
          "codelistNcit": null,
          "codelistNcitAll": []
        },
        {
          "order": 14,
          "name": "AEPTCD",
          "label": "Preferred Term Code",
          "type": "Num",
          "role": "Variable Qualifier",
          "core": "Exp",
          "codelistNcit": null,
          "codelistNcitAll": []
        },
        {
          "order": 15,
          "name": "AEHLT",
          "label": "High Level Term",
          "type": "Char",
          "role": "Variable Qualifier",
          "core": "Exp",
          "codelistNcit": null,
          "codelistNcitAll": []
        },
        {
          "order": 16,
          "name": "AEHLTCD",
          "label": "High Level Term Code",
          "type": "Num",
          "role": "Variable Qualifier",
          "core": "Exp",
          "codelistNcit": null,
          "codelistNcitAll": []
        },
        {
          "order": 17,
          "name": "AEHLGT",
          "label": "High Level Group Term",
          "type": "Char",
          "role": "Variable Qualifier",
          "core": "Exp",
          "codelistNcit": null,
          "codelistNcitAll": []
        },
        {
          "order": 18,
          "name": "AEHLGTCD",
          "label": "High Level Group Term Code",
          "type": "Num",
          "role": "Variable Qualifier",
          "core": "Exp",
          "codelistNcit": null,
          "codelistNcitAll": []
        },
        {
          "order": 19,
          "name": "AECAT",
          "label": "Category for Adverse Event",
          "type": "Char",
          "role": "Grouping Qualifier",
          "core": "Perm",
          "codelistNcit": null,
          "codelistNcitAll": []
        },
        {
          "order": 20,
          "name": "AESCAT",
          "label": "Subcategory for Adverse Event",
          "type": "Char",
          "role": "Grouping Qualifier",
          "core": "Perm",
          "codelistNcit": null,
          "codelistNcitAll": []
        },
        {
          "order": 21,
          "name": "AEPRESP",
          "label": "Pre-Specified Adverse Event",
          "type": "Char",
          "role": "Variable Qualifier",
          "core": "Perm",
          "codelistNcit": "C66742",
          "codelistNcitAll": [
            "C66742"
          ]
        },
        {
          "order": 22,
          "name": "AEBODSYS",
          "label": "Body System or Organ Class",
          "type": "Char",
          "role": "Record Qualifier",
          "core": "Exp",
          "codelistNcit": null,
          "codelistNcitAll": []
        },
        {
          "order": 23,
          "name": "AEBDSYCD",
          "label": "Body System or Organ Class Code",
          "type": "Num",
          "role": "Variable Qualifier",
          "core": "Exp",
          "codelistNcit": null,
          "codelistNcitAll": []
        },
        {
          "order": 24,
          "name": "AESOC",
          "label": "Primary System Organ Class",
          "type": "Char",
          "role": "Variable Qualifier",
          "core": "Exp",
          "codelistNcit": null,
          "codelistNcitAll": []
        },
        {
          "order": 25,
          "name": "AESOCCD",
          "label": "Primary System Organ Class Code",
          "type": "Num",
          "role": "Variable Qualifier",
          "core": "Exp",
          "codelistNcit": null,
          "codelistNcitAll": []
        },
        {
          "order": 26,
          "name": "AELOC",
          "label": "Location of Event",
          "type": "Char",
          "role": "Record Qualifier",
          "core": "Perm",
          "codelistNcit": "C74456",
          "codelistNcitAll": [
            "C74456"
          ]
        },
        {
          "order": 27,
          "name": "AESEV",
          "label": "Severity/Intensity",
          "type": "Char",
          "role": "Record Qualifier",
          "core": "Perm",
          "codelistNcit": "C66769",
          "codelistNcitAll": [
            "C66769"
          ]
        },
        {
          "order": 28,
          "name": "AESER",
          "label": "Serious Event",
          "type": "Char",
          "role": "Record Qualifier",
          "core": "Exp",
          "codelistNcit": "C66742",
          "codelistNcitAll": [
            "C66742"
          ]
        },
        {
          "order": 29,
          "name": "AEACN",
          "label": "Action Taken with Study Treatment",
          "type": "Char",
          "role": "Record Qualifier",
          "core": "Exp",
          "codelistNcit": "C66767",
          "codelistNcitAll": [
            "C66767"
          ]
        },
        {
          "order": 30,
          "name": "AEACNOTH",
          "label": "Other Action Taken",
          "type": "Char",
          "role": "Record Qualifier",
          "core": "Perm",
          "codelistNcit": null,
          "codelistNcitAll": []
        },
        {
          "order": 31,
          "name": "AEACNDEV",
          "label": "Action Taken with Device",
          "type": "Char",
          "role": "Record Qualifier",
          "core": "Perm",
          "codelistNcit": "C111110",
          "codelistNcitAll": [
            "C111110"
          ]
        },
        {
          "order": 32,
          "name": "AEREL",
          "label": "Causality",
          "type": "Char",
          "role": "Record Qualifier",
          "core": "Exp",
          "codelistNcit": null,
          "codelistNcitAll": []
        },
        {
          "order": 33,
          "name": "AERLDEV",
          "label": "Relationship of Event to Device",
          "type": "Char",
          "role": "Record Qualifier",
          "core": "Perm",
          "codelistNcit": null,
          "codelistNcitAll": []
        },
        {
          "order": 34,
          "name": "AERELNST",
          "label": "Relationship to Non-Study Treatment",
          "type": "Char",
          "role": "Record Qualifier",
          "core": "Perm",
          "codelistNcit": null,
          "codelistNcitAll": []
        },
        {
          "order": 35,
          "name": "AEPATT",
          "label": "Pattern of Adverse Event",
          "type": "Char",
          "role": "Record Qualifier",
          "core": "Perm",
          "codelistNcit": null,
          "codelistNcitAll": []
        },
        {
          "order": 36,
          "name": "AEOUT",
          "label": "Outcome of Adverse Event",
          "type": "Char",
          "role": "Record Qualifier",
          "core": "Perm",
          "codelistNcit": "C66768",
          "codelistNcitAll": [
            "C66768"
          ]
        },
        {
          "order": 37,
          "name": "AESCAN",
          "label": "Involves Cancer",
          "type": "Char",
          "role": "Record Qualifier",
          "core": "Perm",
          "codelistNcit": "C66742",
          "codelistNcitAll": [
            "C66742"
          ]
        },
        {
          "order": 38,
          "name": "AESCONG",
          "label": "Congenital Anomaly or Birth Defect",
          "type": "Char",
          "role": "Record Qualifier",
          "core": "Perm",
          "codelistNcit": "C66742",
          "codelistNcitAll": [
            "C66742"
          ]
        },
        {
          "order": 39,
          "name": "AESDISAB",
          "label": "Persist or Signif Disability/Incapacity",
          "type": "Char",
          "role": "Record Qualifier",
          "core": "Perm",
          "codelistNcit": "C66742",
          "codelistNcitAll": [
            "C66742"
          ]
        },
        {
          "order": 40,
          "name": "AESDTH",
          "label": "Results in Death",
          "type": "Char",
          "role": "Record Qualifier",
          "core": "Perm",
          "codelistNcit": "C66742",
          "codelistNcitAll": [
            "C66742"
          ]
        },
        {
          "order": 41,
          "name": "AESHOSP",
          "label": "Requires or Prolongs Hospitalization",
          "type": "Char",
          "role": "Record Qualifier",
          "core": "Perm",
          "codelistNcit": "C66742",
          "codelistNcitAll": [
            "C66742"
          ]
        },
        {
          "order": 42,
          "name": "AESLIFE",
          "label": "Is Life Threatening",
          "type": "Char",
          "role": "Record Qualifier",
          "core": "Perm",
          "codelistNcit": "C66742",
          "codelistNcitAll": [
            "C66742"
          ]
        },
        {
          "order": 43,
          "name": "AESOD",
          "label": "Occurred with Overdose",
          "type": "Char",
          "role": "Record Qualifier",
          "core": "Perm",
          "codelistNcit": "C66742",
          "codelistNcitAll": [
            "C66742"
          ]
        },
        {
          "order": 44,
          "name": "AESMIE",
          "label": "Other Medically Important Serious Event",
          "type": "Char",
          "role": "Record Qualifier",
          "core": "Perm",
          "codelistNcit": "C66742",
          "codelistNcitAll": [
            "C66742"
          ]
        },
        {
          "order": 45,
          "name": "AESINTV",
          "label": "Needs Intervention to Prevent Impairment",
          "type": "Char",
          "role": "Record Qualifier",
          "core": "Perm",
          "codelistNcit": "C66742",
          "codelistNcitAll": [
            "C66742"
          ]
        },
        {
          "order": 46,
          "name": "AEUNANT",
          "label": "Unanticipated Adverse Device Effect",
          "type": "Char",
          "role": "Record Qualifier",
          "core": "Perm",
          "codelistNcit": "C66742",
          "codelistNcitAll": [
            "C66742"
          ]
        },
        {
          "order": 47,
          "name": "AERLPRT",
          "label": "Rel of AE to Non-Dev-Rel Study Activity",
          "type": "Char",
          "role": "Record Qualifier",
          "core": "Perm",
          "codelistNcit": null,
          "codelistNcitAll": []
        },
        {
          "order": 48,
          "name": "AERLPRC",
          "label": "Rel of AE to Device-Related Procedure",
          "type": "Char",
          "role": "Record Qualifier",
          "core": "Perm",
          "codelistNcit": null,
          "codelistNcitAll": []
        },
        {
          "order": 49,
          "name": "AECONTRT",
          "label": "Concomitant or Additional Trtmnt Given",
          "type": "Char",
          "role": "Record Qualifier",
          "core": "Perm",
          "codelistNcit": "C66742",
          "codelistNcitAll": [
            "C66742"
          ]
        },
        {
          "order": 50,
          "name": "AETOXGR",
          "label": "Standard Toxicity Grade",
          "type": "Char",
          "role": "Record Qualifier",
          "core": "Perm",
          "codelistNcit": null,
          "codelistNcitAll": []
        },
        {
          "order": 51,
          "name": "TAETORD",
          "label": "Planned Order of Element within Arm",
          "type": "Num",
          "role": "Timing",
          "core": "Perm",
          "codelistNcit": null,
          "codelistNcitAll": []
        },
        {
          "order": 52,
          "name": "EPOCH",
          "label": "Epoch",
          "type": "Char",
          "role": "Timing",
          "core": "Perm",
          "codelistNcit": "C99079",
          "codelistNcitAll": [
            "C99079"
          ]
        },
        {
          "order": 53,
          "name": "AESTDTC",
          "label": "Start Date/Time of Adverse Event",
          "type": "Char",
          "role": "Timing",
          "core": "Exp",
          "codelistNcit": null,
          "codelistNcitAll": []
        },
        {
          "order": 54,
          "name": "AEENDTC",
          "label": "End Date/Time of Adverse Event",
          "type": "Char",
          "role": "Timing",
          "core": "Exp",
          "codelistNcit": null,
          "codelistNcitAll": []
        },
        {
          "order": 55,
          "name": "AESTDY",
          "label": "Study Day of Start of Adverse Event",
          "type": "Num",
          "role": "Timing",
          "core": "Perm",
          "codelistNcit": null,
          "codelistNcitAll": []
        },
        {
          "order": 56,
          "name": "AEENDY",
          "label": "Study Day of End of Adverse Event",
          "type": "Num",
          "role": "Timing",
          "core": "Perm",
          "codelistNcit": null,
          "codelistNcitAll": []
        },
        {
          "order": 57,
          "name": "AEDUR",
          "label": "Duration of Adverse Event",
          "type": "Char",
          "role": "Timing",
          "core": "Perm",
          "codelistNcit": null,
          "codelistNcitAll": []
        },
        {
          "order": 58,
          "name": "AEENRF",
          "label": "End Relative to Reference Period",
          "type": "Char",
          "role": "Timing",
          "core": "Perm",
          "codelistNcit": "C66728",
          "codelistNcitAll": [
            "C66728"
          ]
        },
        {
          "order": 59,
          "name": "AEENRTPT",
          "label": "End Relative to Reference Time Point",
          "type": "Char",
          "role": "Timing",
          "core": "Perm",
          "codelistNcit": "C66728",
          "codelistNcitAll": [
            "C66728"
          ]
        },
        {
          "order": 60,
          "name": "AEENTPT",
          "label": "End Reference Time Point",
          "type": "Char",
          "role": "Timing",
          "core": "Perm",
          "codelistNcit": null,
          "codelistNcitAll": []
        }
      ]
    },
    "BE": {
      "class": "Events",
      "variables": [
        {
          "order": 1,
          "name": "STUDYID",
          "label": "Study Identifier",
          "type": "Char",
          "role": "Identifier",
          "core": "Req",
          "codelistNcit": null,
          "codelistNcitAll": []
        },
        {
          "order": 2,
          "name": "DOMAIN",
          "label": "Domain Abbreviation",
          "type": "Char",
          "role": "Identifier",
          "core": "Req",
          "codelistNcit": null,
          "codelistNcitAll": []
        },
        {
          "order": 3,
          "name": "USUBJID",
          "label": "Unique Subject Identifier",
          "type": "Char",
          "role": "Identifier",
          "core": "Req",
          "codelistNcit": null,
          "codelistNcitAll": []
        },
        {
          "order": 4,
          "name": "SPDEVID",
          "label": "Sponsor Device Identifier",
          "type": "Char",
          "role": "Identifier",
          "core": "Perm",
          "codelistNcit": null,
          "codelistNcitAll": []
        },
        {
          "order": 5,
          "name": "BESEQ",
          "label": "Sequence Number",
          "type": "Num",
          "role": "Identifier",
          "core": "Req",
          "codelistNcit": null,
          "codelistNcitAll": []
        },
        {
          "order": 6,
          "name": "BEGRPID",
          "label": "Group ID",
          "type": "Char",
          "role": "Identifier",
          "core": "Perm",
          "codelistNcit": null,
          "codelistNcitAll": []
        },
        {
          "order": 7,
          "name": "BEREFID",
          "label": "Reference ID",
          "type": "Char",
          "role": "Identifier",
          "core": "Exp",
          "codelistNcit": null,
          "codelistNcitAll": []
        },
        {
          "order": 8,
          "name": "BESPID",
          "label": "Sponsor-Defined Identifier",
          "type": "Char",
          "role": "Identifier",
          "core": "Perm",
          "codelistNcit": null,
          "codelistNcitAll": []
        },
        {
          "order": 9,
          "name": "BETERM",
          "label": "Reported Term for the Biospecimen Event",
          "type": "Char",
          "role": "Topic",
          "core": "Req",
          "codelistNcit": null,
          "codelistNcitAll": []
        },
        {
          "order": 10,
          "name": "BEMODIFY",
          "label": "Modified Reported Term",
          "type": "Char",
          "role": "Synonym Qualifier",
          "core": "Perm",
          "codelistNcit": null,
          "codelistNcitAll": []
        },
        {
          "order": 11,
          "name": "BEDECOD",
          "label": "Dictionary-Derived Term",
          "type": "Char",
          "role": "Synonym Qualifier",
          "core": "Perm",
          "codelistNcit": "C124297",
          "codelistNcitAll": [
            "C124297"
          ]
        },
        {
          "order": 12,
          "name": "BECAT",
          "label": "Category for Biospecimen Event",
          "type": "Char",
          "role": "Grouping Qualifier",
          "core": "Perm",
          "codelistNcit": null,
          "codelistNcitAll": []
        },
        {
          "order": 13,
          "name": "BESCAT",
          "label": "Subcategory for Biospecimen Event",
          "type": "Char",
          "role": "Grouping Qualifier",
          "core": "Perm",
          "codelistNcit": null,
          "codelistNcitAll": []
        },
        {
          "order": 14,
          "name": "BELOC",
          "label": "Anatomical Location of Event",
          "type": "Char",
          "role": "Record Qualifier",
          "core": "Perm",
          "codelistNcit": "C74456",
          "codelistNcitAll": [
            "C74456"
          ]
        },
        {
          "order": 15,
          "name": "BEPARTY",
          "label": "Accountable Party",
          "type": "Char",
          "role": "Record Qualifier",
          "core": "Perm",
          "codelistNcit": null,
          "codelistNcitAll": []
        },
        {
          "order": 16,
          "name": "BEPRTYID",
          "label": "Identification of Accountable Party",
          "type": "Char",
          "role": "Record Qualifier",
          "core": "Perm",
          "codelistNcit": null,
          "codelistNcitAll": []
        },
        {
          "order": 17,
          "name": "VISITNUM",
          "label": "Visit Number",
          "type": "Num",
          "role": "Timing",
          "core": "Exp",
          "codelistNcit": null,
          "codelistNcitAll": []
        },
        {
          "order": 18,
          "name": "VISIT",
          "label": "Visit Name",
          "type": "Char",
          "role": "Timing",
          "core": "Perm",
          "codelistNcit": null,
          "codelistNcitAll": []
        },
        {
          "order": 19,
          "name": "VISITDY",
          "label": "Planned Study Day of Visit",
          "type": "Num",
          "role": "Timing",
          "core": "Perm",
          "codelistNcit": null,
          "codelistNcitAll": []
        },
        {
          "order": 20,
          "name": "BEDTC",
          "label": "Date/Time of Specimen Collection",
          "type": "Char",
          "role": "Timing",
          "core": "Exp",
          "codelistNcit": null,
          "codelistNcitAll": []
        },
        {
          "order": 21,
          "name": "BESTDTC",
          "label": "Start Date/Time of Biospecimen Event",
          "type": "Char",
          "role": "Timing",
          "core": "Exp",
          "codelistNcit": null,
          "codelistNcitAll": []
        },
        {
          "order": 22,
          "name": "BEENDTC",
          "label": "End Date/Time of Biospecimen Event",
          "type": "Char",
          "role": "Timing",
          "core": "Exp",
          "codelistNcit": null,
          "codelistNcitAll": []
        },
        {
          "order": 23,
          "name": "BESTDY",
          "label": "Study Day of Start of Biospecimen Event",
          "type": "Num",
          "role": "Timing",
          "core": "Perm",
          "codelistNcit": null,
          "codelistNcitAll": []
        },
        {
          "order": 24,
          "name": "BEENDY",
          "label": "Study Day of End of Biospecimen Event",
          "type": "Num",
          "role": "Timing",
          "core": "Perm",
          "codelistNcit": null,
          "codelistNcitAll": []
        },
        {
          "order": 25,
          "name": "BEDUR",
          "label": "Duration of Biospecimen Event",
          "type": "Char",
          "role": "Timing",
          "core": "Perm",
          "codelistNcit": null,
          "codelistNcitAll": []
        }
      ]
    },
    "CE": {
      "class": "Events",
      "variables": [
        {
          "order": 1,
          "name": "STUDYID",
          "label": "Study Identifier",
          "type": "Char",
          "role": "Identifier",
          "core": "Req",
          "codelistNcit": null,
          "codelistNcitAll": []
        },
        {
          "order": 2,
          "name": "DOMAIN",
          "label": "Domain Abbreviation",
          "type": "Char",
          "role": "Identifier",
          "core": "Req",
          "codelistNcit": null,
          "codelistNcitAll": []
        },
        {
          "order": 3,
          "name": "USUBJID",
          "label": "Unique Subject Identifier",
          "type": "Char",
          "role": "Identifier",
          "core": "Req",
          "codelistNcit": null,
          "codelistNcitAll": []
        },
        {
          "order": 4,
          "name": "CESEQ",
          "label": "Sequence Number",
          "type": "Num",
          "role": "Identifier",
          "core": "Req",
          "codelistNcit": null,
          "codelistNcitAll": []
        },
        {
          "order": 5,
          "name": "CEGRPID",
          "label": "Group ID",
          "type": "Char",
          "role": "Identifier",
          "core": "Perm",
          "codelistNcit": null,
          "codelistNcitAll": []
        },
        {
          "order": 6,
          "name": "CEREFID",
          "label": "Reference ID",
          "type": "Char",
          "role": "Identifier",
          "core": "Perm",
          "codelistNcit": null,
          "codelistNcitAll": []
        },
        {
          "order": 7,
          "name": "CESPID",
          "label": "Sponsor-Defined Identifier",
          "type": "Char",
          "role": "Identifier",
          "core": "Perm",
          "codelistNcit": null,
          "codelistNcitAll": []
        },
        {
          "order": 8,
          "name": "CETERM",
          "label": "Reported Term for the Clinical Event",
          "type": "Char",
          "role": "Topic",
          "core": "Req",
          "codelistNcit": null,
          "codelistNcitAll": []
        },
        {
          "order": 9,
          "name": "CEDECOD",
          "label": "Dictionary-Derived Term",
          "type": "Char",
          "role": "Synonym Qualifier",
          "core": "Perm",
          "codelistNcit": null,
          "codelistNcitAll": []
        },
        {
          "order": 10,
          "name": "CECAT",
          "label": "Category for the Clinical Event",
          "type": "Char",
          "role": "Grouping Qualifier",
          "core": "Perm",
          "codelistNcit": null,
          "codelistNcitAll": []
        },
        {
          "order": 11,
          "name": "CESCAT",
          "label": "Subcategory for the Clinical Event",
          "type": "Char",
          "role": "Grouping Qualifier",
          "core": "Perm",
          "codelistNcit": null,
          "codelistNcitAll": []
        },
        {
          "order": 12,
          "name": "CEPRESP",
          "label": "Clinical Event Pre-specified",
          "type": "Char",
          "role": "Variable Qualifier",
          "core": "Perm",
          "codelistNcit": "C66742",
          "codelistNcitAll": [
            "C66742"
          ]
        },
        {
          "order": 13,
          "name": "CEOCCUR",
          "label": "Clinical Event Occurrence",
          "type": "Char",
          "role": "Record Qualifier",
          "core": "Perm",
          "codelistNcit": "C66742",
          "codelistNcitAll": [
            "C66742"
          ]
        },
        {
          "order": 14,
          "name": "CESTAT",
          "label": "Completion Status",
          "type": "Char",
          "role": "Record Qualifier",
          "core": "Perm",
          "codelistNcit": "C66789",
          "codelistNcitAll": [
            "C66789"
          ]
        },
        {
          "order": 15,
          "name": "CEREASND",
          "label": "Reason Clinical Event Not Collected",
          "type": "Char",
          "role": "Record Qualifier",
          "core": "Perm",
          "codelistNcit": null,
          "codelistNcitAll": []
        },
        {
          "order": 16,
          "name": "CEBODSYS",
          "label": "Body System or Organ Class",
          "type": "Char",
          "role": "Record Qualifier",
          "core": "Perm",
          "codelistNcit": null,
          "codelistNcitAll": []
        },
        {
          "order": 17,
          "name": "CESEV",
          "label": "Severity/Intensity",
          "type": "Char",
          "role": "Record Qualifier",
          "core": "Perm",
          "codelistNcit": "C165643",
          "codelistNcitAll": [
            "C165643"
          ]
        },
        {
          "order": 18,
          "name": "CETOXGR",
          "label": "Standard Toxicity Grade",
          "type": "Char",
          "role": "Record Qualifier",
          "core": "Perm",
          "codelistNcit": null,
          "codelistNcitAll": []
        },
        {
          "order": 19,
          "name": "TAETORD",
          "label": "Planned Order of Element within Arm",
          "type": "Num",
          "role": "Timing",
          "core": "Perm",
          "codelistNcit": null,
          "codelistNcitAll": []
        },
        {
          "order": 20,
          "name": "EPOCH",
          "label": "Epoch",
          "type": "Char",
          "role": "Timing",
          "core": "Perm",
          "codelistNcit": "C99079",
          "codelistNcitAll": [
            "C99079"
          ]
        },
        {
          "order": 21,
          "name": "CEDTC",
          "label": "Date/Time of Event Collection",
          "type": "Char",
          "role": "Timing",
          "core": "Perm",
          "codelistNcit": null,
          "codelistNcitAll": []
        },
        {
          "order": 22,
          "name": "CESTDTC",
          "label": "Start Date/Time of Clinical Event",
          "type": "Char",
          "role": "Timing",
          "core": "Perm",
          "codelistNcit": null,
          "codelistNcitAll": []
        },
        {
          "order": 23,
          "name": "CEENDTC",
          "label": "End Date/Time of Clinical Event",
          "type": "Char",
          "role": "Timing",
          "core": "Perm",
          "codelistNcit": null,
          "codelistNcitAll": []
        },
        {
          "order": 24,
          "name": "CEDY",
          "label": "Study Day of Event Collection",
          "type": "Num",
          "role": "Timing",
          "core": "Perm",
          "codelistNcit": null,
          "codelistNcitAll": []
        },
        {
          "order": 25,
          "name": "CESTDY",
          "label": "Study Day of Start of Event",
          "type": "Num",
          "role": "Timing",
          "core": "Perm",
          "codelistNcit": null,
          "codelistNcitAll": []
        },
        {
          "order": 26,
          "name": "CEENDY",
          "label": "Study Day of End of Event",
          "type": "Num",
          "role": "Timing",
          "core": "Perm",
          "codelistNcit": null,
          "codelistNcitAll": []
        },
        {
          "order": 27,
          "name": "CESTRF",
          "label": "Start Relative to Reference Period",
          "type": "Char",
          "role": "Timing",
          "core": "Perm",
          "codelistNcit": "C66728",
          "codelistNcitAll": [
            "C66728"
          ]
        },
        {
          "order": 28,
          "name": "CEENRF",
          "label": "End Relative to Reference Period",
          "type": "Char",
          "role": "Timing",
          "core": "Perm",
          "codelistNcit": "C66728",
          "codelistNcitAll": [
            "C66728"
          ]
        },
        {
          "order": 29,
          "name": "CESTRTPT",
          "label": "Start Relative to Reference Time Point",
          "type": "Char",
          "role": "Timing",
          "core": "Perm",
          "codelistNcit": "C66728",
          "codelistNcitAll": [
            "C66728"
          ]
        },
        {
          "order": 30,
          "name": "CESTTPT",
          "label": "Start Reference Time Point",
          "type": "Char",
          "role": "Timing",
          "core": "Perm",
          "codelistNcit": null,
          "codelistNcitAll": []
        },
        {
          "order": 31,
          "name": "CEENRTPT",
          "label": "End Relative to Reference Time Point",
          "type": "Char",
          "role": "Timing",
          "core": "Perm",
          "codelistNcit": "C66728",
          "codelistNcitAll": [
            "C66728"
          ]
        },
        {
          "order": 32,
          "name": "CEENTPT",
          "label": "End Reference Time Point",
          "type": "Char",
          "role": "Timing",
          "core": "Perm",
          "codelistNcit": null,
          "codelistNcitAll": []
        }
      ]
    },
    "DS": {
      "class": "Events",
      "variables": [
        {
          "order": 1,
          "name": "STUDYID",
          "label": "Study Identifier",
          "type": "Char",
          "role": "Identifier",
          "core": "Req",
          "codelistNcit": null,
          "codelistNcitAll": []
        },
        {
          "order": 2,
          "name": "DOMAIN",
          "label": "Domain Abbreviation",
          "type": "Char",
          "role": "Identifier",
          "core": "Req",
          "codelistNcit": null,
          "codelistNcitAll": []
        },
        {
          "order": 3,
          "name": "USUBJID",
          "label": "Unique Subject Identifier",
          "type": "Char",
          "role": "Identifier",
          "core": "Req",
          "codelistNcit": null,
          "codelistNcitAll": []
        },
        {
          "order": 4,
          "name": "DSSEQ",
          "label": "Sequence Number",
          "type": "Num",
          "role": "Identifier",
          "core": "Req",
          "codelistNcit": null,
          "codelistNcitAll": []
        },
        {
          "order": 5,
          "name": "DSGRPID",
          "label": "Group ID",
          "type": "Char",
          "role": "Identifier",
          "core": "Perm",
          "codelistNcit": null,
          "codelistNcitAll": []
        },
        {
          "order": 6,
          "name": "DSREFID",
          "label": "Reference ID",
          "type": "Char",
          "role": "Identifier",
          "core": "Perm",
          "codelistNcit": null,
          "codelistNcitAll": []
        },
        {
          "order": 7,
          "name": "DSSPID",
          "label": "Sponsor-Defined Identifier",
          "type": "Char",
          "role": "Identifier",
          "core": "Perm",
          "codelistNcit": null,
          "codelistNcitAll": []
        },
        {
          "order": 8,
          "name": "DSTERM",
          "label": "Reported Term for the Disposition Event",
          "type": "Char",
          "role": "Topic",
          "core": "Req",
          "codelistNcit": null,
          "codelistNcitAll": []
        },
        {
          "order": 9,
          "name": "DSDECOD",
          "label": "Standardized Disposition Term",
          "type": "Char",
          "role": "Synonym Qualifier",
          "core": "Req",
          "codelistNcit": "C66727",
          "codelistNcitAll": [
            "C66727",
            "C114118",
            "C150811"
          ]
        },
        {
          "order": 10,
          "name": "DSCAT",
          "label": "Category for Disposition Event",
          "type": "Char",
          "role": "Grouping Qualifier",
          "core": "Exp",
          "codelistNcit": "C74558",
          "codelistNcitAll": [
            "C74558"
          ]
        },
        {
          "order": 11,
          "name": "DSSCAT",
          "label": "Subcategory for Disposition Event",
          "type": "Char",
          "role": "Grouping Qualifier",
          "core": "Perm",
          "codelistNcit": "C170443",
          "codelistNcitAll": [
            "C170443"
          ]
        },
        {
          "order": 12,
          "name": "EPOCH",
          "label": "Epoch",
          "type": "Char",
          "role": "Timing",
          "core": "Perm",
          "codelistNcit": "C99079",
          "codelistNcitAll": [
            "C99079"
          ]
        },
        {
          "order": 13,
          "name": "DSDTC",
          "label": "Date/Time of Collection",
          "type": "Char",
          "role": "Timing",
          "core": "Perm",
          "codelistNcit": null,
          "codelistNcitAll": []
        },
        {
          "order": 14,
          "name": "DSSTDTC",
          "label": "Start Date/Time of Disposition Event",
          "type": "Char",
          "role": "Timing",
          "core": "Exp",
          "codelistNcit": null,
          "codelistNcitAll": []
        },
        {
          "order": 15,
          "name": "DSDY",
          "label": "Study Day of Collection",
          "type": "Num",
          "role": "Timing",
          "core": "Perm",
          "codelistNcit": null,
          "codelistNcitAll": []
        },
        {
          "order": 16,
          "name": "DSSTDY",
          "label": "Study Day of Start of Disposition Event",
          "type": "Num",
          "role": "Timing",
          "core": "Exp",
          "codelistNcit": null,
          "codelistNcitAll": []
        }
      ]
    },
    "DV": {
      "class": "Events",
      "variables": [
        {
          "order": 1,
          "name": "STUDYID",
          "label": "Study Identifier",
          "type": "Char",
          "role": "Identifier",
          "core": "Req",
          "codelistNcit": null,
          "codelistNcitAll": []
        },
        {
          "order": 2,
          "name": "DOMAIN",
          "label": "Domain Abbreviation",
          "type": "Char",
          "role": "Identifier",
          "core": "Req",
          "codelistNcit": null,
          "codelistNcitAll": []
        },
        {
          "order": 3,
          "name": "USUBJID",
          "label": "Unique Subject Identifier",
          "type": "Char",
          "role": "Identifier",
          "core": "Req",
          "codelistNcit": null,
          "codelistNcitAll": []
        },
        {
          "order": 4,
          "name": "DVSEQ",
          "label": "Sequence Number",
          "type": "Num",
          "role": "Identifier",
          "core": "Req",
          "codelistNcit": null,
          "codelistNcitAll": []
        },
        {
          "order": 5,
          "name": "DVREFID",
          "label": "Reference ID",
          "type": "Char",
          "role": "Identifier",
          "core": "Perm",
          "codelistNcit": null,
          "codelistNcitAll": []
        },
        {
          "order": 6,
          "name": "DVSPID",
          "label": "Sponsor-Defined Identifier",
          "type": "Char",
          "role": "Identifier",
          "core": "Perm",
          "codelistNcit": null,
          "codelistNcitAll": []
        },
        {
          "order": 7,
          "name": "DVTERM",
          "label": "Protocol Deviation Term",
          "type": "Char",
          "role": "Topic",
          "core": "Req",
          "codelistNcit": null,
          "codelistNcitAll": []
        },
        {
          "order": 8,
          "name": "DVDECOD",
          "label": "Protocol Deviation Coded Term",
          "type": "Char",
          "role": "Synonym Qualifier",
          "core": "Perm",
          "codelistNcit": null,
          "codelistNcitAll": []
        },
        {
          "order": 9,
          "name": "DVCAT",
          "label": "Category for Protocol Deviation",
          "type": "Char",
          "role": "Grouping Qualifier",
          "core": "Perm",
          "codelistNcit": null,
          "codelistNcitAll": []
        },
        {
          "order": 10,
          "name": "DVSCAT",
          "label": "Subcategory for Protocol Deviation",
          "type": "Char",
          "role": "Grouping Qualifier",
          "core": "Perm",
          "codelistNcit": null,
          "codelistNcitAll": []
        },
        {
          "order": 11,
          "name": "TAETORD",
          "label": "Planned Order of Element within Arm",
          "type": "Num",
          "role": "Timing",
          "core": "Perm",
          "codelistNcit": null,
          "codelistNcitAll": []
        },
        {
          "order": 12,
          "name": "EPOCH",
          "label": "Epoch",
          "type": "Char",
          "role": "Timing",
          "core": "Perm",
          "codelistNcit": "C99079",
          "codelistNcitAll": [
            "C99079"
          ]
        },
        {
          "order": 13,
          "name": "DVSTDTC",
          "label": "Start Date/Time of Deviation",
          "type": "Char",
          "role": "Timing",
          "core": "Perm",
          "codelistNcit": null,
          "codelistNcitAll": []
        },
        {
          "order": 14,
          "name": "DVENDTC",
          "label": "End Date/Time of Deviation",
          "type": "Char",
          "role": "Timing",
          "core": "Perm",
          "codelistNcit": null,
          "codelistNcitAll": []
        },
        {
          "order": 15,
          "name": "DVSTDY",
          "label": "Study Day of Start of Deviation Event",
          "type": "Num",
          "role": "Timing",
          "core": "Perm",
          "codelistNcit": null,
          "codelistNcitAll": []
        },
        {
          "order": 16,
          "name": "DVENDY",
          "label": "Study Day of End of Deviation Event",
          "type": "Num",
          "role": "Timing",
          "core": "Perm",
          "codelistNcit": null,
          "codelistNcitAll": []
        }
      ]
    },
    "HO": {
      "class": "Events",
      "variables": [
        {
          "order": 1,
          "name": "STUDYID",
          "label": "Study Identifier",
          "type": "Char",
          "role": "Identifier",
          "core": "Req",
          "codelistNcit": null,
          "codelistNcitAll": []
        },
        {
          "order": 2,
          "name": "DOMAIN",
          "label": "Domain Abbreviation",
          "type": "Char",
          "role": "Identifier",
          "core": "Req",
          "codelistNcit": null,
          "codelistNcitAll": []
        },
        {
          "order": 3,
          "name": "USUBJID",
          "label": "Unique Subject Identifier",
          "type": "Char",
          "role": "Identifier",
          "core": "Req",
          "codelistNcit": null,
          "codelistNcitAll": []
        },
        {
          "order": 4,
          "name": "HOSEQ",
          "label": "Sequence Number",
          "type": "Num",
          "role": "Identifier",
          "core": "Req",
          "codelistNcit": null,
          "codelistNcitAll": []
        },
        {
          "order": 5,
          "name": "HOGRPID",
          "label": "Group ID",
          "type": "Char",
          "role": "Identifier",
          "core": "Perm",
          "codelistNcit": null,
          "codelistNcitAll": []
        },
        {
          "order": 6,
          "name": "HOREFID",
          "label": "Reference ID",
          "type": "Char",
          "role": "Identifier",
          "core": "Perm",
          "codelistNcit": null,
          "codelistNcitAll": []
        },
        {
          "order": 7,
          "name": "HOSPID",
          "label": "Sponsor-Defined Identifier",
          "type": "Char",
          "role": "Identifier",
          "core": "Perm",
          "codelistNcit": null,
          "codelistNcitAll": []
        },
        {
          "order": 8,
          "name": "HOTERM",
          "label": "Healthcare Encounter Term",
          "type": "Char",
          "role": "Topic",
          "core": "Req",
          "codelistNcit": null,
          "codelistNcitAll": []
        },
        {
          "order": 9,
          "name": "HODECOD",
          "label": "Dictionary-Derived Term",
          "type": "Char",
          "role": "Synonym Qualifier",
          "core": "Perm",
          "codelistNcit": "C171444",
          "codelistNcitAll": [
            "C171444"
          ]
        },
        {
          "order": 10,
          "name": "HOCAT",
          "label": "Category for Healthcare Encounter",
          "type": "Char",
          "role": "Grouping Qualifier",
          "core": "Perm",
          "codelistNcit": null,
          "codelistNcitAll": []
        },
        {
          "order": 11,
          "name": "HOSCAT",
          "label": "Subcategory for Healthcare Encounter",
          "type": "Char",
          "role": "Grouping Qualifier",
          "core": "Perm",
          "codelistNcit": null,
          "codelistNcitAll": []
        },
        {
          "order": 12,
          "name": "HOPRESP",
          "label": "Pre-Specified Healthcare Encounter",
          "type": "Char",
          "role": "Variable Qualifier",
          "core": "Perm",
          "codelistNcit": "C66742",
          "codelistNcitAll": [
            "C66742"
          ]
        },
        {
          "order": 13,
          "name": "HOOCCUR",
          "label": "Healthcare Encounter Occurrence",
          "type": "Char",
          "role": "Record Qualifier",
          "core": "Perm",
          "codelistNcit": "C66742",
          "codelistNcitAll": [
            "C66742"
          ]
        },
        {
          "order": 14,
          "name": "HOSTAT",
          "label": "Completion Status",
          "type": "Char",
          "role": "Record Qualifier",
          "core": "Perm",
          "codelistNcit": "C66789",
          "codelistNcitAll": [
            "C66789"
          ]
        },
        {
          "order": 15,
          "name": "HOREASND",
          "label": "Reason Healthcare Encounter Not Done",
          "type": "Char",
          "role": "Record Qualifier",
          "core": "Perm",
          "codelistNcit": null,
          "codelistNcitAll": []
        },
        {
          "order": 16,
          "name": "TAETORD",
          "label": "Planned Order of Element within Arm",
          "type": "Num",
          "role": "Timing",
          "core": "Perm",
          "codelistNcit": null,
          "codelistNcitAll": []
        },
        {
          "order": 17,
          "name": "EPOCH",
          "label": "Epoch",
          "type": "Char",
          "role": "Timing",
          "core": "Perm",
          "codelistNcit": "C99079",
          "codelistNcitAll": [
            "C99079"
          ]
        },
        {
          "order": 18,
          "name": "HODTC",
          "label": "Date/Time of Event Collection",
          "type": "Char",
          "role": "Timing",
          "core": "Perm",
          "codelistNcit": null,
          "codelistNcitAll": []
        },
        {
          "order": 19,
          "name": "HOSTDTC",
          "label": "Start Date/Time of Healthcare Encounter",
          "type": "Char",
          "role": "Timing",
          "core": "Exp",
          "codelistNcit": null,
          "codelistNcitAll": []
        },
        {
          "order": 20,
          "name": "HOENDTC",
          "label": "End Date/Time of Healthcare Encounter",
          "type": "Char",
          "role": "Timing",
          "core": "Perm",
          "codelistNcit": null,
          "codelistNcitAll": []
        },
        {
          "order": 21,
          "name": "HODY",
          "label": "Study Day of Event Collection",
          "type": "Num",
          "role": "Timing",
          "core": "Perm",
          "codelistNcit": null,
          "codelistNcitAll": []
        },
        {
          "order": 22,
          "name": "HOSTDY",
          "label": "Study Day of Start of Encounter",
          "type": "Num",
          "role": "Timing",
          "core": "Perm",
          "codelistNcit": null,
          "codelistNcitAll": []
        },
        {
          "order": 23,
          "name": "HOENDY",
          "label": "Study Day of End of Healthcare Encounter",
          "type": "Num",
          "role": "Timing",
          "core": "Perm",
          "codelistNcit": null,
          "codelistNcitAll": []
        },
        {
          "order": 24,
          "name": "HODUR",
          "label": "Duration of Healthcare Encounter",
          "type": "Char",
          "role": "Timing",
          "core": "Perm",
          "codelistNcit": null,
          "codelistNcitAll": []
        },
        {
          "order": 25,
          "name": "HOSTRTPT",
          "label": "Start Relative to Reference Time Point",
          "type": "Char",
          "role": "Timing",
          "core": "Perm",
          "codelistNcit": "C66728",
          "codelistNcitAll": [
            "C66728"
          ]
        },
        {
          "order": 26,
          "name": "HOSTTPT",
          "label": "Start Reference Time Point",
          "type": "Char",
          "role": "Timing",
          "core": "Perm",
          "codelistNcit": null,
          "codelistNcitAll": []
        },
        {
          "order": 27,
          "name": "HOENRTPT",
          "label": "End Relative to Reference Time Point",
          "type": "Char",
          "role": "Timing",
          "core": "Perm",
          "codelistNcit": "C66728",
          "codelistNcitAll": [
            "C66728"
          ]
        },
        {
          "order": 28,
          "name": "HOENTPT",
          "label": "End Reference Time Point",
          "type": "Char",
          "role": "Timing",
          "core": "Perm",
          "codelistNcit": null,
          "codelistNcitAll": []
        }
      ]
    },
    "MH": {
      "class": "Events",
      "variables": [
        {
          "order": 1,
          "name": "STUDYID",
          "label": "Study Identifier",
          "type": "Char",
          "role": "Identifier",
          "core": "Req",
          "codelistNcit": null,
          "codelistNcitAll": []
        },
        {
          "order": 2,
          "name": "DOMAIN",
          "label": "Domain Abbreviation",
          "type": "Char",
          "role": "Identifier",
          "core": "Req",
          "codelistNcit": null,
          "codelistNcitAll": []
        },
        {
          "order": 3,
          "name": "USUBJID",
          "label": "Unique Subject Identifier",
          "type": "Char",
          "role": "Identifier",
          "core": "Req",
          "codelistNcit": null,
          "codelistNcitAll": []
        },
        {
          "order": 4,
          "name": "MHSEQ",
          "label": "Sequence Number",
          "type": "Num",
          "role": "Identifier",
          "core": "Req",
          "codelistNcit": null,
          "codelistNcitAll": []
        },
        {
          "order": 5,
          "name": "MHGRPID",
          "label": "Group ID",
          "type": "Char",
          "role": "Identifier",
          "core": "Perm",
          "codelistNcit": null,
          "codelistNcitAll": []
        },
        {
          "order": 6,
          "name": "MHREFID",
          "label": "Reference ID",
          "type": "Char",
          "role": "Identifier",
          "core": "Perm",
          "codelistNcit": null,
          "codelistNcitAll": []
        },
        {
          "order": 7,
          "name": "MHSPID",
          "label": "Sponsor-Defined Identifier",
          "type": "Char",
          "role": "Identifier",
          "core": "Perm",
          "codelistNcit": null,
          "codelistNcitAll": []
        },
        {
          "order": 8,
          "name": "MHTERM",
          "label": "Reported Term for the Medical History",
          "type": "Char",
          "role": "Topic",
          "core": "Req",
          "codelistNcit": null,
          "codelistNcitAll": []
        },
        {
          "order": 9,
          "name": "MHMODIFY",
          "label": "Modified Reported Term",
          "type": "Char",
          "role": "Synonym Qualifier",
          "core": "Perm",
          "codelistNcit": null,
          "codelistNcitAll": []
        },
        {
          "order": 10,
          "name": "MHDECOD",
          "label": "Dictionary-Derived Term",
          "type": "Char",
          "role": "Synonym Qualifier",
          "core": "Perm",
          "codelistNcit": null,
          "codelistNcitAll": []
        },
        {
          "order": 11,
          "name": "MHEVDTYP",
          "label": "Medical History Event Date Type",
          "type": "Char",
          "role": "Variable Qualifier",
          "core": "Perm",
          "codelistNcit": "C124301",
          "codelistNcitAll": [
            "C124301"
          ]
        },
        {
          "order": 12,
          "name": "MHCAT",
          "label": "Category for Medical History",
          "type": "Char",
          "role": "Grouping Qualifier",
          "core": "Perm",
          "codelistNcit": null,
          "codelistNcitAll": []
        },
        {
          "order": 13,
          "name": "MHSCAT",
          "label": "Subcategory for Medical History",
          "type": "Char",
          "role": "Grouping Qualifier",
          "core": "Perm",
          "codelistNcit": null,
          "codelistNcitAll": []
        },
        {
          "order": 14,
          "name": "MHPRESP",
          "label": "Medical History Event Pre-Specified",
          "type": "Char",
          "role": "Variable Qualifier",
          "core": "Perm",
          "codelistNcit": "C66742",
          "codelistNcitAll": [
            "C66742"
          ]
        },
        {
          "order": 15,
          "name": "MHOCCUR",
          "label": "Medical History Occurrence",
          "type": "Char",
          "role": "Record Qualifier",
          "core": "Perm",
          "codelistNcit": "C66742",
          "codelistNcitAll": [
            "C66742"
          ]
        },
        {
          "order": 16,
          "name": "MHSTAT",
          "label": "Completion Status",
          "type": "Char",
          "role": "Record Qualifier",
          "core": "Perm",
          "codelistNcit": "C66789",
          "codelistNcitAll": [
            "C66789"
          ]
        },
        {
          "order": 17,
          "name": "MHREASND",
          "label": "Reason Medical History Not Collected",
          "type": "Char",
          "role": "Record Qualifier",
          "core": "Perm",
          "codelistNcit": null,
          "codelistNcitAll": []
        },
        {
          "order": 18,
          "name": "MHBODSYS",
          "label": "Body System or Organ Class",
          "type": "Char",
          "role": "Record Qualifier",
          "core": "Perm",
          "codelistNcit": null,
          "codelistNcitAll": []
        },
        {
          "order": 19,
          "name": "TAETORD",
          "label": "Planned Order of Element within Arm",
          "type": "Num",
          "role": "Timing",
          "core": "Perm",
          "codelistNcit": null,
          "codelistNcitAll": []
        },
        {
          "order": 20,
          "name": "EPOCH",
          "label": "Epoch",
          "type": "Char",
          "role": "Timing",
          "core": "Perm",
          "codelistNcit": "C99079",
          "codelistNcitAll": [
            "C99079"
          ]
        },
        {
          "order": 21,
          "name": "MHDTC",
          "label": "Date/Time of History Collection",
          "type": "Char",
          "role": "Timing",
          "core": "Perm",
          "codelistNcit": null,
          "codelistNcitAll": []
        },
        {
          "order": 22,
          "name": "MHSTDTC",
          "label": "Start Date/Time of Medical History Event",
          "type": "Char",
          "role": "Timing",
          "core": "Perm",
          "codelistNcit": null,
          "codelistNcitAll": []
        },
        {
          "order": 23,
          "name": "MHENDTC",
          "label": "End Date/Time of Medical History Event",
          "type": "Char",
          "role": "Timing",
          "core": "Perm",
          "codelistNcit": null,
          "codelistNcitAll": []
        },
        {
          "order": 24,
          "name": "MHDY",
          "label": "Study Day of History Collection",
          "type": "Num",
          "role": "Timing",
          "core": "Perm",
          "codelistNcit": null,
          "codelistNcitAll": []
        },
        {
          "order": 25,
          "name": "MHENRF",
          "label": "End Relative to Reference Period",
          "type": "Char",
          "role": "Timing",
          "core": "Perm",
          "codelistNcit": "C66728",
          "codelistNcitAll": [
            "C66728"
          ]
        },
        {
          "order": 26,
          "name": "MHENRTPT",
          "label": "End Relative to Reference Time Point",
          "type": "Char",
          "role": "Timing",
          "core": "Perm",
          "codelistNcit": "C66728",
          "codelistNcitAll": [
            "C66728"
          ]
        },
        {
          "order": 27,
          "name": "MHENTPT",
          "label": "End Reference Time Point",
          "type": "Char",
          "role": "Timing",
          "core": "Perm",
          "codelistNcit": null,
          "codelistNcitAll": []
        }
      ]
    },
    "BS": {
      "class": "Findings",
      "variables": [
        {
          "order": 1,
          "name": "STUDYID",
          "label": "Study Identifier",
          "type": "Char",
          "role": "Identifier",
          "core": "Req",
          "codelistNcit": null,
          "codelistNcitAll": []
        },
        {
          "order": 2,
          "name": "DOMAIN",
          "label": "Domain Abbreviation",
          "type": "Char",
          "role": "Identifier",
          "core": "Req",
          "codelistNcit": null,
          "codelistNcitAll": []
        },
        {
          "order": 3,
          "name": "USUBJID",
          "label": "Unique Subject Identifier",
          "type": "Char",
          "role": "Identifier",
          "core": "Req",
          "codelistNcit": null,
          "codelistNcitAll": []
        },
        {
          "order": 4,
          "name": "SPDEVID",
          "label": "Sponsor Device Identifier",
          "type": "Char",
          "role": "Identifier",
          "core": "Perm",
          "codelistNcit": null,
          "codelistNcitAll": []
        },
        {
          "order": 5,
          "name": "BSSEQ",
          "label": "Sequence Number",
          "type": "Num",
          "role": "Identifier",
          "core": "Req",
          "codelistNcit": null,
          "codelistNcitAll": []
        },
        {
          "order": 6,
          "name": "BSGRPID",
          "label": "Group ID",
          "type": "Char",
          "role": "Identifier",
          "core": "Perm",
          "codelistNcit": null,
          "codelistNcitAll": []
        },
        {
          "order": 7,
          "name": "BSREFID",
          "label": "Reference ID",
          "type": "Char",
          "role": "Identifier",
          "core": "Exp",
          "codelistNcit": null,
          "codelistNcitAll": []
        },
        {
          "order": 8,
          "name": "BSSPID",
          "label": "Sponsor-Defined Identifier",
          "type": "Char",
          "role": "Identifier",
          "core": "Perm",
          "codelistNcit": null,
          "codelistNcitAll": []
        },
        {
          "order": 9,
          "name": "BSTESTCD",
          "label": "Biospecimen Test Short Name",
          "type": "Char",
          "role": "Topic",
          "core": "Req",
          "codelistNcit": "C124300",
          "codelistNcitAll": [
            "C124300"
          ]
        },
        {
          "order": 10,
          "name": "BSTEST",
          "label": "Biospecimen Test Name",
          "type": "Char",
          "role": "Synonym Qualifier",
          "core": "Req",
          "codelistNcit": "C124299",
          "codelistNcitAll": [
            "C124299"
          ]
        },
        {
          "order": 11,
          "name": "BSCAT",
          "label": "Category for Biospecimen Test",
          "type": "Char",
          "role": "Grouping Qualifier",
          "core": "Exp",
          "codelistNcit": null,
          "codelistNcitAll": []
        },
        {
          "order": 12,
          "name": "BSSCAT",
          "label": "Subcategory for Biospecimen Test",
          "type": "Char",
          "role": "Grouping Qualifier",
          "core": "Perm",
          "codelistNcit": null,
          "codelistNcitAll": []
        },
        {
          "order": 13,
          "name": "BSORRES",
          "label": "Result or Finding in Original Units",
          "type": "Char",
          "role": "Result Qualifier",
          "core": "Exp",
          "codelistNcit": null,
          "codelistNcitAll": []
        },
        {
          "order": 14,
          "name": "BSORRESU",
          "label": "Original Units",
          "type": "Char",
          "role": "Variable Qualifier",
          "core": "Exp",
          "codelistNcit": "C71620",
          "codelistNcitAll": [
            "C71620"
          ]
        },
        {
          "order": 15,
          "name": "BSSTRESC",
          "label": "Character Result/Finding in Std Format",
          "type": "Char",
          "role": "Result Qualifier",
          "core": "Exp",
          "codelistNcit": null,
          "codelistNcitAll": []
        },
        {
          "order": 16,
          "name": "BSSTRESN",
          "label": "Numeric Result/Finding in Standard Units",
          "type": "Num",
          "role": "Result Qualifier",
          "core": "Exp",
          "codelistNcit": null,
          "codelistNcitAll": []
        },
        {
          "order": 17,
          "name": "BSSTRESU",
          "label": "Standard Units",
          "type": "Char",
          "role": "Variable Qualifier",
          "core": "Exp",
          "codelistNcit": "C71620",
          "codelistNcitAll": [
            "C71620"
          ]
        },
        {
          "order": 18,
          "name": "BSSTAT",
          "label": "Completion Status",
          "type": "Char",
          "role": "Record Qualifier",
          "core": "Perm",
          "codelistNcit": "C66789",
          "codelistNcitAll": [
            "C66789"
          ]
        },
        {
          "order": 19,
          "name": "BSREASND",
          "label": "Reason Test Not Done",
          "type": "Char",
          "role": "Record Qualifier",
          "core": "Perm",
          "codelistNcit": null,
          "codelistNcitAll": []
        },
        {
          "order": 20,
          "name": "BSNAM",
          "label": "Vendor Name",
          "type": "Char",
          "role": "Record Qualifier",
          "core": "Perm",
          "codelistNcit": null,
          "codelistNcitAll": []
        },
        {
          "order": 21,
          "name": "BSSPEC",
          "label": "Specimen Type",
          "type": "Char",
          "role": "Record Qualifier",
          "core": "Perm",
          "codelistNcit": "C78734",
          "codelistNcitAll": [
            "C78734",
            "C111114"
          ]
        },
        {
          "order": 22,
          "name": "BSANTREG",
          "label": "Anatomical Region of Specimen",
          "type": "Char",
          "role": "Variable Qualifier",
          "core": "Perm",
          "codelistNcit": null,
          "codelistNcitAll": []
        },
        {
          "order": 23,
          "name": "BSSPCCND",
          "label": "Specimen Condition",
          "type": "Char",
          "role": "Record Qualifier",
          "core": "Perm",
          "codelistNcit": "C78733",
          "codelistNcitAll": [
            "C78733"
          ]
        },
        {
          "order": 24,
          "name": "BSMETHOD",
          "label": "Method of Test or Examination",
          "type": "Char",
          "role": "Record Qualifier",
          "core": "Perm",
          "codelistNcit": "C85492",
          "codelistNcitAll": [
            "C85492"
          ]
        },
        {
          "order": 25,
          "name": "BSBLFL",
          "label": "Baseline Flag",
          "type": "Char",
          "role": "Record Qualifier",
          "core": "Perm",
          "codelistNcit": "C66742",
          "codelistNcitAll": [
            "C66742"
          ]
        },
        {
          "order": 26,
          "name": "VISITNUM",
          "label": "Visit Number",
          "type": "Num",
          "role": "Timing",
          "core": "Exp",
          "codelistNcit": null,
          "codelistNcitAll": []
        },
        {
          "order": 27,
          "name": "VISIT",
          "label": "Visit Name",
          "type": "Char",
          "role": "Timing",
          "core": "Perm",
          "codelistNcit": null,
          "codelistNcitAll": []
        },
        {
          "order": 28,
          "name": "VISITDY",
          "label": "Planned Study Day of Visit",
          "type": "Num",
          "role": "Timing",
          "core": "Perm",
          "codelistNcit": null,
          "codelistNcitAll": []
        },
        {
          "order": 29,
          "name": "BSDTC",
          "label": "Date/Time of Specimen Collection",
          "type": "Char",
          "role": "Timing",
          "core": "Exp",
          "codelistNcit": null,
          "codelistNcitAll": []
        },
        {
          "order": 30,
          "name": "BSDY",
          "label": "Study Day of Specimen Collection",
          "type": "Num",
          "role": "Timing",
          "core": "Perm",
          "codelistNcit": null,
          "codelistNcitAll": []
        },
        {
          "order": 31,
          "name": "BSTPT",
          "label": "Planned Time Point Name",
          "type": "Char",
          "role": "Timing",
          "core": "Perm",
          "codelistNcit": null,
          "codelistNcitAll": []
        },
        {
          "order": 32,
          "name": "BSTPTNUM",
          "label": "Planned Time Point Number",
          "type": "Num",
          "role": "Timing",
          "core": "Perm",
          "codelistNcit": null,
          "codelistNcitAll": []
        },
        {
          "order": 33,
          "name": "BSELTM",
          "label": "Planned Elapsed Time from Time Point Ref",
          "type": "Char",
          "role": "Timing",
          "core": "Perm",
          "codelistNcit": null,
          "codelistNcitAll": []
        },
        {
          "order": 34,
          "name": "BSTPTREF",
          "label": "Time Point Reference",
          "type": "Char",
          "role": "Timing",
          "core": "Perm",
          "codelistNcit": null,
          "codelistNcitAll": []
        },
        {
          "order": 35,
          "name": "BSRFTDTC",
          "label": "Date/Time of Reference Time Point",
          "type": "Char",
          "role": "Timing",
          "core": "Perm",
          "codelistNcit": null,
          "codelistNcitAll": []
        }
      ]
    },
    "CP": {
      "class": "Findings",
      "variables": [
        {
          "order": 1,
          "name": "STUDYID",
          "label": "Study Identifier",
          "type": "Char",
          "role": "Identifier",
          "core": "Req",
          "codelistNcit": null,
          "codelistNcitAll": []
        },
        {
          "order": 2,
          "name": "DOMAIN",
          "label": "Domain Abbreviation",
          "type": "Char",
          "role": "Identifier",
          "core": "Req",
          "codelistNcit": null,
          "codelistNcitAll": []
        },
        {
          "order": 3,
          "name": "USUBJID",
          "label": "Unique Subject Identifier",
          "type": "Char",
          "role": "Identifier",
          "core": "Req",
          "codelistNcit": null,
          "codelistNcitAll": []
        },
        {
          "order": 4,
          "name": "CPSEQ",
          "label": "Sequence Number",
          "type": "Num",
          "role": "Identifier",
          "core": "Req",
          "codelistNcit": null,
          "codelistNcitAll": []
        },
        {
          "order": 5,
          "name": "CPGRPID",
          "label": "Group ID",
          "type": "Char",
          "role": "Identifier",
          "core": "Perm",
          "codelistNcit": null,
          "codelistNcitAll": []
        },
        {
          "order": 6,
          "name": "CPREFID",
          "label": "Reference ID",
          "type": "Char",
          "role": "Identifier",
          "core": "Perm",
          "codelistNcit": null,
          "codelistNcitAll": []
        },
        {
          "order": 7,
          "name": "CPSPID",
          "label": "Sponsor-Defined Identifier",
          "type": "Char",
          "role": "Identifier",
          "core": "Perm",
          "codelistNcit": null,
          "codelistNcitAll": []
        },
        {
          "order": 8,
          "name": "CPLNKID",
          "label": "Link ID",
          "type": "Char",
          "role": "Identifier",
          "core": "Perm",
          "codelistNcit": null,
          "codelistNcitAll": []
        },
        {
          "order": 9,
          "name": "CPLNKGRP",
          "label": "Link Group ID",
          "type": "Char",
          "role": "Identifier",
          "core": "Perm",
          "codelistNcit": null,
          "codelistNcitAll": []
        },
        {
          "order": 10,
          "name": "CPTESTCD",
          "label": "Test or Examination Short Name",
          "type": "Char",
          "role": "Topic",
          "core": "Req",
          "codelistNcit": "C181173",
          "codelistNcitAll": [
            "C181173"
          ]
        },
        {
          "order": 11,
          "name": "CPTEST",
          "label": "Name of Measurement, Test or Examination",
          "type": "Char",
          "role": "Synonym Qualifier",
          "core": "Req",
          "codelistNcit": "C181174",
          "codelistNcitAll": [
            "C181174"
          ]
        },
        {
          "order": 12,
          "name": "CPSBMRKS",
          "label": "Sublineage Marker String",
          "type": "Char",
          "role": "Variable Qualifier",
          "core": "Perm",
          "codelistNcit": null,
          "codelistNcitAll": []
        },
        {
          "order": 13,
          "name": "CPCELSTA",
          "label": "Cell State",
          "type": "Char",
          "role": "Variable Qualifier",
          "core": "Perm",
          "codelistNcit": "C181172",
          "codelistNcitAll": [
            "C181172"
          ]
        },
        {
          "order": 14,
          "name": "CPCSMRKS",
          "label": "Cell State Marker String",
          "type": "Char",
          "role": "Variable Qualifier",
          "core": "Perm",
          "codelistNcit": null,
          "codelistNcitAll": []
        },
        {
          "order": 15,
          "name": "CPTSTCND",
          "label": "Test Condition",
          "type": "Char",
          "role": "Variable Qualifier",
          "core": "Perm",
          "codelistNcit": "C181175",
          "codelistNcitAll": [
            "C181175"
          ]
        },
        {
          "order": 16,
          "name": "CPCNDAGT",
          "label": "Test Condition Agent",
          "type": "Char",
          "role": "Record Qualifier",
          "core": "Perm",
          "codelistNcit": null,
          "codelistNcitAll": []
        },
        {
          "order": 17,
          "name": "CPBDAGNT",
          "label": "Binding Agent",
          "type": "Char",
          "role": "Record Qualifier",
          "core": "Perm",
          "codelistNcit": null,
          "codelistNcitAll": []
        },
        {
          "order": 18,
          "name": "CPABCLID",
          "label": "Antibody Clone Identifier",
          "type": "Char",
          "role": "Record Qualifier",
          "core": "Perm",
          "codelistNcit": null,
          "codelistNcitAll": []
        },
        {
          "order": 19,
          "name": "CPMRKSTR",
          "label": "Marker String",
          "type": "Char",
          "role": "Record Qualifier",
          "core": "Exp",
          "codelistNcit": null,
          "codelistNcitAll": []
        },
        {
          "order": 20,
          "name": "CPGATE",
          "label": "Gate",
          "type": "Char",
          "role": "Record Qualifier",
          "core": "Perm",
          "codelistNcit": null,
          "codelistNcitAll": []
        },
        {
          "order": 21,
          "name": "CPGATDEF",
          "label": "Gate Definition",
          "type": "Char",
          "role": "Record Qualifier",
          "core": "Perm",
          "codelistNcit": null,
          "codelistNcitAll": []
        },
        {
          "order": 22,
          "name": "CPSPTSTD",
          "label": "Sponsor Test Description",
          "type": "Char",
          "role": "Record Qualifier",
          "core": "Perm",
          "codelistNcit": null,
          "codelistNcitAll": []
        },
        {
          "order": 23,
          "name": "CPCAT",
          "label": "Category",
          "type": "Char",
          "role": "Grouping Qualifier",
          "core": "Perm",
          "codelistNcit": "C181171",
          "codelistNcitAll": [
            "C181171"
          ]
        },
        {
          "order": 24,
          "name": "CPSCAT",
          "label": "Subcategory",
          "type": "Char",
          "role": "Grouping Qualifier",
          "core": "Perm",
          "codelistNcit": null,
          "codelistNcitAll": []
        },
        {
          "order": 25,
          "name": "CPTSTPNL",
          "label": "Test Panel",
          "type": "Char",
          "role": "Grouping Qualifier",
          "core": "Perm",
          "codelistNcit": null,
          "codelistNcitAll": []
        },
        {
          "order": 26,
          "name": "CPORRES",
          "label": "Result or Finding in Original Units",
          "type": "Char",
          "role": "Result Qualifier",
          "core": "Exp",
          "codelistNcit": null,
          "codelistNcitAll": []
        },
        {
          "order": 27,
          "name": "CPORRESU",
          "label": "Original Units",
          "type": "Char",
          "role": "Variable Qualifier",
          "core": "Perm",
          "codelistNcit": "C71620",
          "codelistNcitAll": [
            "C71620"
          ]
        },
        {
          "order": 28,
          "name": "CPRESSCL",
          "label": "Result Scale",
          "type": "Char",
          "role": "Record Qualifier",
          "core": "Perm",
          "codelistNcit": "C177910",
          "codelistNcitAll": [
            "C177910"
          ]
        },
        {
          "order": 29,
          "name": "CPRESTYP",
          "label": "Result Type",
          "type": "Char",
          "role": "Record Qualifier",
          "core": "Perm",
          "codelistNcit": "C179588",
          "codelistNcitAll": [
            "C179588"
          ]
        },
        {
          "order": 30,
          "name": "CPCOLSRT",
          "label": "Collected Summary Result Type",
          "type": "Char",
          "role": "Record Qualifier",
          "core": "Perm",
          "codelistNcit": "C177908",
          "codelistNcitAll": [
            "C177908"
          ]
        },
        {
          "order": 31,
          "name": "CPORNRLO",
          "label": "Reference Range Lower Limit in Orig Unit",
          "type": "Char",
          "role": "Variable Qualifier",
          "core": "Perm",
          "codelistNcit": null,
          "codelistNcitAll": []
        },
        {
          "order": 32,
          "name": "CPORNRHI",
          "label": "Reference Range Upper Limit in Orig Unit",
          "type": "Char",
          "role": "Variable Qualifier",
          "core": "Perm",
          "codelistNcit": null,
          "codelistNcitAll": []
        },
        {
          "order": 33,
          "name": "CPSTRESC",
          "label": "Result or Finding in Standard Format",
          "type": "Char",
          "role": "Result Qualifier",
          "core": "Exp",
          "codelistNcit": null,
          "codelistNcitAll": []
        },
        {
          "order": 34,
          "name": "CPSTRESN",
          "label": "Numeric Result/Finding in Standard Units",
          "type": "Num",
          "role": "Result Qualifier",
          "core": "Perm",
          "codelistNcit": null,
          "codelistNcitAll": []
        },
        {
          "order": 35,
          "name": "CPSTRESU",
          "label": "Standard Units",
          "type": "Char",
          "role": "Variable Qualifier",
          "core": "Perm",
          "codelistNcit": "C71620",
          "codelistNcitAll": [
            "C71620"
          ]
        },
        {
          "order": 36,
          "name": "CPSTNRLO",
          "label": "Reference Range Lower Limit-Std Units",
          "type": "Num",
          "role": "Variable Qualifier",
          "core": "Perm",
          "codelistNcit": null,
          "codelistNcitAll": []
        },
        {
          "order": 37,
          "name": "CPSTNRHI",
          "label": "Reference Range Upper Limit-Std Units",
          "type": "Num",
          "role": "Variable Qualifier",
          "core": "Perm",
          "codelistNcit": null,
          "codelistNcitAll": []
        },
        {
          "order": 38,
          "name": "CPNRIND",
          "label": "Reference Range Indicator",
          "type": "Char",
          "role": "Variable Qualifier",
          "core": "Perm",
          "codelistNcit": "C78736",
          "codelistNcitAll": [
            "C78736"
          ]
        },
        {
          "order": 39,
          "name": "CPSTAT",
          "label": "Completion Status",
          "type": "Char",
          "role": "Record Qualifier",
          "core": "Perm",
          "codelistNcit": "C66789",
          "codelistNcitAll": [
            "C66789"
          ]
        },
        {
          "order": 40,
          "name": "CPREASND",
          "label": "Reason Not Done",
          "type": "Char",
          "role": "Record Qualifier",
          "core": "Perm",
          "codelistNcit": null,
          "codelistNcitAll": []
        },
        {
          "order": 41,
          "name": "CPNAM",
          "label": "Vendor Name",
          "type": "Char",
          "role": "Record Qualifier",
          "core": "Perm",
          "codelistNcit": null,
          "codelistNcitAll": []
        },
        {
          "order": 42,
          "name": "CPLOINC",
          "label": "LOINC Code",
          "type": "Char",
          "role": "Synonym Qualifier",
          "core": "Perm",
          "codelistNcit": null,
          "codelistNcitAll": []
        },
        {
          "order": 43,
          "name": "CPSPEC",
          "label": "Specimen Type",
          "type": "Char",
          "role": "Record Qualifier",
          "core": "Perm",
          "codelistNcit": "C78734",
          "codelistNcitAll": [
            "C78734"
          ]
        },
        {
          "order": 44,
          "name": "CPSPCCND",
          "label": "Specimen Condition",
          "type": "Char",
          "role": "Record Qualifier",
          "core": "Perm",
          "codelistNcit": "C78733",
          "codelistNcitAll": [
            "C78733"
          ]
        },
        {
          "order": 45,
          "name": "CPMETHOD",
          "label": "Method of Test or Examination",
          "type": "Char",
          "role": "Record Qualifier",
          "core": "Perm",
          "codelistNcit": "C85492",
          "codelistNcitAll": [
            "C85492"
          ]
        },
        {
          "order": 46,
          "name": "CPANMETH",
          "label": "Analysis Method",
          "type": "Char",
          "role": "Record Qualifier",
          "core": "Perm",
          "codelistNcit": null,
          "codelistNcitAll": []
        },
        {
          "order": 47,
          "name": "CPLOBXFL",
          "label": "Last Observation Before Exposure Flag",
          "type": "Char",
          "role": "Record Qualifier",
          "core": "Perm",
          "codelistNcit": "C66742",
          "codelistNcitAll": [
            "C66742"
          ]
        },
        {
          "order": 48,
          "name": "CPBLFL",
          "label": "Baseline Flag",
          "type": "Char",
          "role": "Record Qualifier",
          "core": "Perm",
          "codelistNcit": "C66742",
          "codelistNcitAll": [
            "C66742"
          ]
        },
        {
          "order": 49,
          "name": "CPDRVFL",
          "label": "Derived Flag",
          "type": "Char",
          "role": "Record Qualifier",
          "core": "Perm",
          "codelistNcit": "C66742",
          "codelistNcitAll": [
            "C66742"
          ]
        },
        {
          "order": 50,
          "name": "CPCLSIG",
          "label": "Clinically Significant, Collected",
          "type": "Char",
          "role": "Record Qualifier",
          "core": "Perm",
          "codelistNcit": "C66742",
          "codelistNcitAll": [
            "C66742"
          ]
        },
        {
          "order": 51,
          "name": "VISITNUM",
          "label": "Visit Number",
          "type": "Num",
          "role": "Timing",
          "core": "Perm",
          "codelistNcit": null,
          "codelistNcitAll": []
        },
        {
          "order": 52,
          "name": "VISIT",
          "label": "Visit Name",
          "type": "Char",
          "role": "Timing",
          "core": "Perm",
          "codelistNcit": null,
          "codelistNcitAll": []
        },
        {
          "order": 53,
          "name": "VISITDY",
          "label": "Planned Study Day of Visit",
          "type": "Num",
          "role": "Timing",
          "core": "Perm",
          "codelistNcit": null,
          "codelistNcitAll": []
        },
        {
          "order": 54,
          "name": "TAETORD",
          "label": "Planned Order of Element within Arm",
          "type": "Num",
          "role": "Timing",
          "core": "Perm",
          "codelistNcit": null,
          "codelistNcitAll": []
        },
        {
          "order": 55,
          "name": "EPOCH",
          "label": "Epoch",
          "type": "Char",
          "role": "Timing",
          "core": "Perm",
          "codelistNcit": "C99079",
          "codelistNcitAll": [
            "C99079"
          ]
        },
        {
          "order": 56,
          "name": "CPDTC",
          "label": "Date/Time of Collection",
          "type": "Char",
          "role": "Timing",
          "core": "Exp",
          "codelistNcit": null,
          "codelistNcitAll": []
        },
        {
          "order": 57,
          "name": "CPDY",
          "label": "Study Day of Visit/Collection/Exam",
          "type": "Num",
          "role": "Timing",
          "core": "Perm",
          "codelistNcit": null,
          "codelistNcitAll": []
        },
        {
          "order": 58,
          "name": "CPTPT",
          "label": "Planned Time Point Name",
          "type": "Char",
          "role": "Timing",
          "core": "Perm",
          "codelistNcit": null,
          "codelistNcitAll": []
        },
        {
          "order": 59,
          "name": "CPTPTNUM",
          "label": "Planned Time Point Number",
          "type": "Num",
          "role": "Timing",
          "core": "Perm",
          "codelistNcit": null,
          "codelistNcitAll": []
        },
        {
          "order": 60,
          "name": "CPELTM",
          "label": "Planned Elapsed Time from Time Point Ref",
          "type": "Char",
          "role": "Timing",
          "core": "Perm",
          "codelistNcit": null,
          "codelistNcitAll": []
        },
        {
          "order": 61,
          "name": "CPTPTREF",
          "label": "Time Point Reference",
          "type": "Char",
          "role": "Timing",
          "core": "Perm",
          "codelistNcit": null,
          "codelistNcitAll": []
        },
        {
          "order": 62,
          "name": "CPRFTDTC",
          "label": "Date/Time of Reference Time Point",
          "type": "Char",
          "role": "Timing",
          "core": "Perm",
          "codelistNcit": null,
          "codelistNcitAll": []
        }
      ]
    },
    "CV": {
      "class": "Findings",
      "variables": [
        {
          "order": 1,
          "name": "STUDYID",
          "label": "Study Identifier",
          "type": "Char",
          "role": "Identifier",
          "core": "Req",
          "codelistNcit": null,
          "codelistNcitAll": []
        },
        {
          "order": 2,
          "name": "DOMAIN",
          "label": "Domain Abbreviation",
          "type": "Char",
          "role": "Identifier",
          "core": "Req",
          "codelistNcit": null,
          "codelistNcitAll": []
        },
        {
          "order": 3,
          "name": "USUBJID",
          "label": "Unique Subject Identifier",
          "type": "Char",
          "role": "Identifier",
          "core": "Req",
          "codelistNcit": null,
          "codelistNcitAll": []
        },
        {
          "order": 4,
          "name": "CVSEQ",
          "label": "Sequence Number",
          "type": "Num",
          "role": "Identifier",
          "core": "Req",
          "codelistNcit": null,
          "codelistNcitAll": []
        },
        {
          "order": 5,
          "name": "CVGRPID",
          "label": "Group ID",
          "type": "Char",
          "role": "Identifier",
          "core": "Perm",
          "codelistNcit": null,
          "codelistNcitAll": []
        },
        {
          "order": 6,
          "name": "CVREFID",
          "label": "Reference ID",
          "type": "Char",
          "role": "Identifier",
          "core": "Perm",
          "codelistNcit": null,
          "codelistNcitAll": []
        },
        {
          "order": 7,
          "name": "CVSPID",
          "label": "Sponsor-Defined Identifier",
          "type": "Char",
          "role": "Identifier",
          "core": "Perm",
          "codelistNcit": null,
          "codelistNcitAll": []
        },
        {
          "order": 8,
          "name": "CVLNKID",
          "label": "Link ID",
          "type": "Char",
          "role": "Identifier",
          "core": "Perm",
          "codelistNcit": null,
          "codelistNcitAll": []
        },
        {
          "order": 9,
          "name": "CVLNKGRP",
          "label": "Link Group",
          "type": "Char",
          "role": "Identifier",
          "core": "Perm",
          "codelistNcit": null,
          "codelistNcitAll": []
        },
        {
          "order": 10,
          "name": "CVTESTCD",
          "label": "Short Name of Cardiovascular Test",
          "type": "Char",
          "role": "Topic",
          "core": "Req",
          "codelistNcit": "C101847",
          "codelistNcitAll": [
            "C101847"
          ]
        },
        {
          "order": 11,
          "name": "CVTEST",
          "label": "Name of Cardiovascular Test",
          "type": "Char",
          "role": "Synonym Qualifier",
          "core": "Req",
          "codelistNcit": "C101846",
          "codelistNcitAll": [
            "C101846"
          ]
        },
        {
          "order": 12,
          "name": "CVCAT",
          "label": "Category for Cardiovascular Test",
          "type": "Char",
          "role": "Grouping Qualifier",
          "core": "Perm",
          "codelistNcit": null,
          "codelistNcitAll": []
        },
        {
          "order": 13,
          "name": "CVSCAT",
          "label": "Subcategory for Cardiovascular Test",
          "type": "Char",
          "role": "Grouping Qualifier",
          "core": "Perm",
          "codelistNcit": null,
          "codelistNcitAll": []
        },
        {
          "order": 14,
          "name": "CVPOS",
          "label": "Position of Subject During Observation",
          "type": "Char",
          "role": "Record Qualifier",
          "core": "Perm",
          "codelistNcit": "C71148",
          "codelistNcitAll": [
            "C71148"
          ]
        },
        {
          "order": 15,
          "name": "CVORRES",
          "label": "Result or Finding in Original Units",
          "type": "Char",
          "role": "Result Qualifier",
          "core": "Exp",
          "codelistNcit": null,
          "codelistNcitAll": []
        },
        {
          "order": 16,
          "name": "CVORRESU",
          "label": "Original Units",
          "type": "Char",
          "role": "Variable Qualifier",
          "core": "Perm",
          "codelistNcit": "C71620",
          "codelistNcitAll": [
            "C71620"
          ]
        },
        {
          "order": 17,
          "name": "CVSTRESC",
          "label": "Character Result/Finding in Std Format",
          "type": "Char",
          "role": "Result Qualifier",
          "core": "Exp",
          "codelistNcit": null,
          "codelistNcitAll": []
        },
        {
          "order": 18,
          "name": "CVSTRESN",
          "label": "Numeric Result/Finding in Standard Units",
          "type": "Num",
          "role": "Result Qualifier",
          "core": "Perm",
          "codelistNcit": null,
          "codelistNcitAll": []
        },
        {
          "order": 19,
          "name": "CVSTRESU",
          "label": "Standard Units",
          "type": "Char",
          "role": "Variable Qualifier",
          "core": "Perm",
          "codelistNcit": "C71620",
          "codelistNcitAll": [
            "C71620"
          ]
        },
        {
          "order": 20,
          "name": "CVSTAT",
          "label": "Completion Status",
          "type": "Char",
          "role": "Record Qualifier",
          "core": "Perm",
          "codelistNcit": "C66789",
          "codelistNcitAll": [
            "C66789"
          ]
        },
        {
          "order": 21,
          "name": "CVREASND",
          "label": "Reason Not Done",
          "type": "Char",
          "role": "Record Qualifier",
          "core": "Perm",
          "codelistNcit": null,
          "codelistNcitAll": []
        },
        {
          "order": 22,
          "name": "CVLOC",
          "label": "Location Used for the Measurement",
          "type": "Char",
          "role": "Record Qualifier",
          "core": "Perm",
          "codelistNcit": "C74456",
          "codelistNcitAll": [
            "C74456"
          ]
        },
        {
          "order": 23,
          "name": "CVLAT",
          "label": "Laterality",
          "type": "Char",
          "role": "Variable Qualifier",
          "core": "Perm",
          "codelistNcit": "C99073",
          "codelistNcitAll": [
            "C99073"
          ]
        },
        {
          "order": 24,
          "name": "CVDIR",
          "label": "Directionality",
          "type": "Char",
          "role": "Variable Qualifier",
          "core": "Perm",
          "codelistNcit": "C99074",
          "codelistNcitAll": [
            "C99074"
          ]
        },
        {
          "order": 25,
          "name": "CVMETHOD",
          "label": "Method of Test or Examination",
          "type": "Char",
          "role": "Record Qualifier",
          "core": "Perm",
          "codelistNcit": "C85492",
          "codelistNcitAll": [
            "C85492"
          ]
        },
        {
          "order": 26,
          "name": "CVLOBXFL",
          "label": "Last Observation Before Exposure Flag",
          "type": "Char",
          "role": "Record Qualifier",
          "core": "Exp",
          "codelistNcit": "C66742",
          "codelistNcitAll": [
            "C66742"
          ]
        },
        {
          "order": 27,
          "name": "CVBLFL",
          "label": "Baseline Flag",
          "type": "Char",
          "role": "Record Qualifier",
          "core": "Perm",
          "codelistNcit": "C66742",
          "codelistNcitAll": [
            "C66742"
          ]
        },
        {
          "order": 28,
          "name": "CVDRVFL",
          "label": "Derived Flag",
          "type": "Char",
          "role": "Record Qualifier",
          "core": "Perm",
          "codelistNcit": "C66742",
          "codelistNcitAll": [
            "C66742"
          ]
        },
        {
          "order": 29,
          "name": "CVEVAL",
          "label": "Evaluator",
          "type": "Char",
          "role": "Record Qualifier",
          "core": "Perm",
          "codelistNcit": "C78735",
          "codelistNcitAll": [
            "C78735"
          ]
        },
        {
          "order": 30,
          "name": "CVEVALID",
          "label": "Evaluator Identifier",
          "type": "Char",
          "role": "Variable Qualifier",
          "core": "Perm",
          "codelistNcit": "C96777",
          "codelistNcitAll": [
            "C96777"
          ]
        },
        {
          "order": 31,
          "name": "VISITNUM",
          "label": "Visit Number",
          "type": "Num",
          "role": "Timing",
          "core": "Exp",
          "codelistNcit": null,
          "codelistNcitAll": []
        },
        {
          "order": 32,
          "name": "VISIT",
          "label": "Visit Name",
          "type": "Char",
          "role": "Timing",
          "core": "Perm",
          "codelistNcit": null,
          "codelistNcitAll": []
        },
        {
          "order": 33,
          "name": "VISITDY",
          "label": "Planned Study Day of Visit",
          "type": "Num",
          "role": "Timing",
          "core": "Perm",
          "codelistNcit": null,
          "codelistNcitAll": []
        },
        {
          "order": 34,
          "name": "TAETORD",
          "label": "Planned Order of Element within Arm",
          "type": "Num",
          "role": "Timing",
          "core": "Perm",
          "codelistNcit": null,
          "codelistNcitAll": []
        },
        {
          "order": 35,
          "name": "EPOCH",
          "label": "Epoch",
          "type": "Char",
          "role": "Timing",
          "core": "Perm",
          "codelistNcit": "C99079",
          "codelistNcitAll": [
            "C99079"
          ]
        },
        {
          "order": 36,
          "name": "CVDTC",
          "label": "Date/Time of Test",
          "type": "Char",
          "role": "Timing",
          "core": "Exp",
          "codelistNcit": null,
          "codelistNcitAll": []
        },
        {
          "order": 37,
          "name": "CVDY",
          "label": "Study Day of Visit/Collection/Exam",
          "type": "Num",
          "role": "Timing",
          "core": "Perm",
          "codelistNcit": null,
          "codelistNcitAll": []
        },
        {
          "order": 38,
          "name": "CVTPT",
          "label": "Planned Time Point Name",
          "type": "Char",
          "role": "Timing",
          "core": "Perm",
          "codelistNcit": null,
          "codelistNcitAll": []
        },
        {
          "order": 39,
          "name": "CVTPTNUM",
          "label": "Planned Time Point Number",
          "type": "Num",
          "role": "Timing",
          "core": "Perm",
          "codelistNcit": null,
          "codelistNcitAll": []
        },
        {
          "order": 40,
          "name": "CVELTM",
          "label": "Planned Elapsed Time from Time Point Ref",
          "type": "Char",
          "role": "Timing",
          "core": "Perm",
          "codelistNcit": null,
          "codelistNcitAll": []
        },
        {
          "order": 41,
          "name": "CVTPTREF",
          "label": "Time Point Reference",
          "type": "Char",
          "role": "Timing",
          "core": "Perm",
          "codelistNcit": null,
          "codelistNcitAll": []
        },
        {
          "order": 42,
          "name": "CVRFTDTC",
          "label": "Date/Time of Reference Time Point",
          "type": "Char",
          "role": "Timing",
          "core": "Perm",
          "codelistNcit": null,
          "codelistNcitAll": []
        }
      ]
    },
    "DA": {
      "class": "Findings",
      "variables": [
        {
          "order": 1,
          "name": "STUDYID",
          "label": "Study Identifier",
          "type": "Char",
          "role": "Identifier",
          "core": "Req",
          "codelistNcit": null,
          "codelistNcitAll": []
        },
        {
          "order": 2,
          "name": "DOMAIN",
          "label": "Domain Abbreviation",
          "type": "Char",
          "role": "Identifier",
          "core": "Req",
          "codelistNcit": null,
          "codelistNcitAll": []
        },
        {
          "order": 3,
          "name": "USUBJID",
          "label": "Unique Subject Identifier",
          "type": "Char",
          "role": "Identifier",
          "core": "Req",
          "codelistNcit": null,
          "codelistNcitAll": []
        },
        {
          "order": 4,
          "name": "DASEQ",
          "label": "Sequence Number",
          "type": "Num",
          "role": "Identifier",
          "core": "Req",
          "codelistNcit": null,
          "codelistNcitAll": []
        },
        {
          "order": 5,
          "name": "DAGRPID",
          "label": "Group ID",
          "type": "Char",
          "role": "Identifier",
          "core": "Perm",
          "codelistNcit": null,
          "codelistNcitAll": []
        },
        {
          "order": 6,
          "name": "DAREFID",
          "label": "Reference ID",
          "type": "Char",
          "role": "Identifier",
          "core": "Perm",
          "codelistNcit": null,
          "codelistNcitAll": []
        },
        {
          "order": 7,
          "name": "DASPID",
          "label": "Sponsor-Defined Identifier",
          "type": "Char",
          "role": "Identifier",
          "core": "Perm",
          "codelistNcit": null,
          "codelistNcitAll": []
        },
        {
          "order": 8,
          "name": "DALNKID",
          "label": "Link ID",
          "type": "Char",
          "role": "Identifier",
          "core": "Perm",
          "codelistNcit": null,
          "codelistNcitAll": []
        },
        {
          "order": 9,
          "name": "DALNKGRP",
          "label": "Link Group ID",
          "type": "Char",
          "role": "Identifier",
          "core": "Perm",
          "codelistNcit": null,
          "codelistNcitAll": []
        },
        {
          "order": 10,
          "name": "DATESTCD",
          "label": "Short Name of Accountability Assessment",
          "type": "Char",
          "role": "Topic",
          "core": "Req",
          "codelistNcit": "C78732",
          "codelistNcitAll": [
            "C78732"
          ]
        },
        {
          "order": 11,
          "name": "DATEST",
          "label": "Name of Accountability Assessment",
          "type": "Char",
          "role": "Synonym Qualifier",
          "core": "Req",
          "codelistNcit": "C78731",
          "codelistNcitAll": [
            "C78731"
          ]
        },
        {
          "order": 12,
          "name": "DACAT",
          "label": "Category",
          "type": "Char",
          "role": "Grouping Qualifier",
          "core": "Perm",
          "codelistNcit": null,
          "codelistNcitAll": []
        },
        {
          "order": 13,
          "name": "DASCAT",
          "label": "Subcategory",
          "type": "Char",
          "role": "Grouping Qualifier",
          "core": "Perm",
          "codelistNcit": null,
          "codelistNcitAll": []
        },
        {
          "order": 14,
          "name": "DAORRES",
          "label": "Result or Finding in Original Units",
          "type": "Char",
          "role": "Result Qualifier",
          "core": "Exp",
          "codelistNcit": null,
          "codelistNcitAll": []
        },
        {
          "order": 15,
          "name": "DAORRESU",
          "label": "Original Units",
          "type": "Char",
          "role": "Variable Qualifier",
          "core": "Perm",
          "codelistNcit": "C71620",
          "codelistNcitAll": [
            "C71620"
          ]
        },
        {
          "order": 16,
          "name": "DASTRESC",
          "label": "Result or Finding in Standard Format",
          "type": "Char",
          "role": "Result Qualifier",
          "core": "Exp",
          "codelistNcit": null,
          "codelistNcitAll": []
        },
        {
          "order": 17,
          "name": "DASTRESN",
          "label": "Numeric Result/Finding in Standard Units",
          "type": "Num",
          "role": "Result Qualifier",
          "core": "Perm",
          "codelistNcit": null,
          "codelistNcitAll": []
        },
        {
          "order": 18,
          "name": "DASTRESU",
          "label": "Standard Units",
          "type": "Char",
          "role": "Variable Qualifier",
          "core": "Perm",
          "codelistNcit": "C71620",
          "codelistNcitAll": [
            "C71620"
          ]
        },
        {
          "order": 19,
          "name": "DASTAT",
          "label": "Completion Status",
          "type": "Char",
          "role": "Record Qualifier",
          "core": "Perm",
          "codelistNcit": "C66789",
          "codelistNcitAll": [
            "C66789"
          ]
        },
        {
          "order": 20,
          "name": "DAREASND",
          "label": "Reason Not Done",
          "type": "Char",
          "role": "Record Qualifier",
          "core": "Perm",
          "codelistNcit": null,
          "codelistNcitAll": []
        },
        {
          "order": 21,
          "name": "VISITNUM",
          "label": "Visit Number",
          "type": "Num",
          "role": "Timing",
          "core": "Exp",
          "codelistNcit": null,
          "codelistNcitAll": []
        },
        {
          "order": 22,
          "name": "VISIT",
          "label": "Visit Name",
          "type": "Char",
          "role": "Timing",
          "core": "Perm",
          "codelistNcit": null,
          "codelistNcitAll": []
        },
        {
          "order": 23,
          "name": "VISITDY",
          "label": "Planned Study Day of Visit",
          "type": "Num",
          "role": "Timing",
          "core": "Perm",
          "codelistNcit": null,
          "codelistNcitAll": []
        },
        {
          "order": 24,
          "name": "TAETORD",
          "label": "Planned Order of Element within Arm",
          "type": "Num",
          "role": "Timing",
          "core": "Perm",
          "codelistNcit": null,
          "codelistNcitAll": []
        },
        {
          "order": 25,
          "name": "EPOCH",
          "label": "Epoch",
          "type": "Char",
          "role": "Timing",
          "core": "Perm",
          "codelistNcit": "C99079",
          "codelistNcitAll": [
            "C99079"
          ]
        },
        {
          "order": 26,
          "name": "DADTC",
          "label": "Date/Time of Collection",
          "type": "Char",
          "role": "Timing",
          "core": "Exp",
          "codelistNcit": null,
          "codelistNcitAll": []
        },
        {
          "order": 27,
          "name": "DADY",
          "label": "Study Day of Visit/Collection/Exam",
          "type": "Num",
          "role": "Timing",
          "core": "Perm",
          "codelistNcit": null,
          "codelistNcitAll": []
        }
      ]
    },
    "DD": {
      "class": "Findings",
      "variables": [
        {
          "order": 1,
          "name": "STUDYID",
          "label": "Study Identifier",
          "type": "Char",
          "role": "Identifier",
          "core": "Req",
          "codelistNcit": null,
          "codelistNcitAll": []
        },
        {
          "order": 2,
          "name": "DOMAIN",
          "label": "Domain Abbreviation",
          "type": "Char",
          "role": "Identifier",
          "core": "Req",
          "codelistNcit": null,
          "codelistNcitAll": []
        },
        {
          "order": 3,
          "name": "USUBJID",
          "label": "Unique Subject Identifier",
          "type": "Char",
          "role": "Identifier",
          "core": "Req",
          "codelistNcit": null,
          "codelistNcitAll": []
        },
        {
          "order": 4,
          "name": "DDSEQ",
          "label": "Sequence Number",
          "type": "Num",
          "role": "Identifier",
          "core": "Req",
          "codelistNcit": null,
          "codelistNcitAll": []
        },
        {
          "order": 5,
          "name": "DDTESTCD",
          "label": "Death Detail Assessment Short Name",
          "type": "Char",
          "role": "Topic",
          "core": "Req",
          "codelistNcit": "C116108",
          "codelistNcitAll": [
            "C116108"
          ]
        },
        {
          "order": 6,
          "name": "DDTEST",
          "label": "Death Detail Assessment Name",
          "type": "Char",
          "role": "Synonym Qualifier",
          "core": "Req",
          "codelistNcit": "C116107",
          "codelistNcitAll": [
            "C116107"
          ]
        },
        {
          "order": 7,
          "name": "DDORRES",
          "label": "Result or Finding as Collected",
          "type": "Char",
          "role": "Result Qualifier",
          "core": "Exp",
          "codelistNcit": null,
          "codelistNcitAll": []
        },
        {
          "order": 8,
          "name": "DDSTRESC",
          "label": "Character Result/Finding in Std Format",
          "type": "Char",
          "role": "Result Qualifier",
          "core": "Exp",
          "codelistNcit": null,
          "codelistNcitAll": []
        },
        {
          "order": 9,
          "name": "DDRESCAT",
          "label": "Result Category",
          "type": "Char",
          "role": "Variable Qualifier",
          "core": "Perm",
          "codelistNcit": null,
          "codelistNcitAll": []
        },
        {
          "order": 10,
          "name": "DDEVAL",
          "label": "Evaluator",
          "type": "Char",
          "role": "Record Qualifier",
          "core": "Perm",
          "codelistNcit": "C78735",
          "codelistNcitAll": [
            "C78735"
          ]
        },
        {
          "order": 11,
          "name": "DDDTC",
          "label": "Date/Time of Collection",
          "type": "Char",
          "role": "Timing",
          "core": "Exp",
          "codelistNcit": null,
          "codelistNcitAll": []
        },
        {
          "order": 12,
          "name": "DDDY",
          "label": "Study Day of Collection",
          "type": "Num",
          "role": "Timing",
          "core": "Perm",
          "codelistNcit": null,
          "codelistNcitAll": []
        }
      ]
    },
    "EG": {
      "class": "Findings",
      "variables": [
        {
          "order": 1,
          "name": "STUDYID",
          "label": "Study Identifier",
          "type": "Char",
          "role": "Identifier",
          "core": "Req",
          "codelistNcit": null,
          "codelistNcitAll": []
        },
        {
          "order": 2,
          "name": "DOMAIN",
          "label": "Domain Abbreviation",
          "type": "Char",
          "role": "Identifier",
          "core": "Req",
          "codelistNcit": null,
          "codelistNcitAll": []
        },
        {
          "order": 3,
          "name": "USUBJID",
          "label": "Unique Subject Identifier",
          "type": "Char",
          "role": "Identifier",
          "core": "Req",
          "codelistNcit": null,
          "codelistNcitAll": []
        },
        {
          "order": 4,
          "name": "SPDEVID",
          "label": "Sponsor Device Identifier",
          "type": "Char",
          "role": "Identifier",
          "core": "Perm",
          "codelistNcit": null,
          "codelistNcitAll": []
        },
        {
          "order": 5,
          "name": "EGSEQ",
          "label": "Sequence Number",
          "type": "Num",
          "role": "Identifier",
          "core": "Req",
          "codelistNcit": null,
          "codelistNcitAll": []
        },
        {
          "order": 6,
          "name": "EGGRPID",
          "label": "Group ID",
          "type": "Char",
          "role": "Identifier",
          "core": "Perm",
          "codelistNcit": null,
          "codelistNcitAll": []
        },
        {
          "order": 7,
          "name": "EGREFID",
          "label": "ECG Reference ID",
          "type": "Char",
          "role": "Identifier",
          "core": "Perm",
          "codelistNcit": null,
          "codelistNcitAll": []
        },
        {
          "order": 8,
          "name": "EGSPID",
          "label": "Sponsor-Defined Identifier",
          "type": "Char",
          "role": "Identifier",
          "core": "Perm",
          "codelistNcit": null,
          "codelistNcitAll": []
        },
        {
          "order": 9,
          "name": "EGBEATNO",
          "label": "ECG Beat Number",
          "type": "Num",
          "role": "Identifier",
          "core": "Perm",
          "codelistNcit": null,
          "codelistNcitAll": []
        },
        {
          "order": 10,
          "name": "EGTESTCD",
          "label": "ECG Test or Examination Short Name",
          "type": "Char",
          "role": "Topic",
          "core": "Req",
          "codelistNcit": "C71153",
          "codelistNcitAll": [
            "C71153",
            "C120523"
          ]
        },
        {
          "order": 11,
          "name": "EGTEST",
          "label": "ECG Test or Examination Name",
          "type": "Char",
          "role": "Synonym Qualifier",
          "core": "Req",
          "codelistNcit": "C71152",
          "codelistNcitAll": [
            "C71152",
            "C120524"
          ]
        },
        {
          "order": 12,
          "name": "EGCAT",
          "label": "Category for ECG",
          "type": "Char",
          "role": "Grouping Qualifier",
          "core": "Perm",
          "codelistNcit": null,
          "codelistNcitAll": []
        },
        {
          "order": 13,
          "name": "EGSCAT",
          "label": "Subcategory for ECG",
          "type": "Char",
          "role": "Grouping Qualifier",
          "core": "Perm",
          "codelistNcit": null,
          "codelistNcitAll": []
        },
        {
          "order": 14,
          "name": "EGPOS",
          "label": "ECG Position of Subject",
          "type": "Char",
          "role": "Record Qualifier",
          "core": "Perm",
          "codelistNcit": "C71148",
          "codelistNcitAll": [
            "C71148"
          ]
        },
        {
          "order": 15,
          "name": "EGORRES",
          "label": "Result or Finding in Original Units",
          "type": "Char",
          "role": "Result Qualifier",
          "core": "Exp",
          "codelistNcit": null,
          "codelistNcitAll": []
        },
        {
          "order": 16,
          "name": "EGORRESU",
          "label": "Original Units",
          "type": "Char",
          "role": "Variable Qualifier",
          "core": "Perm",
          "codelistNcit": "C71620",
          "codelistNcitAll": [
            "C71620"
          ]
        },
        {
          "order": 17,
          "name": "EGSTRESC",
          "label": "Character Result/Finding in Std Format",
          "type": "Char",
          "role": "Result Qualifier",
          "core": "Exp",
          "codelistNcit": "C71150",
          "codelistNcitAll": [
            "C71150",
            "C120522",
            "C101834"
          ]
        },
        {
          "order": 18,
          "name": "EGSTRESN",
          "label": "Numeric Result/Finding in Standard Units",
          "type": "Num",
          "role": "Result Qualifier",
          "core": "Perm",
          "codelistNcit": null,
          "codelistNcitAll": []
        },
        {
          "order": 19,
          "name": "EGSTRESU",
          "label": "Standard Units",
          "type": "Char",
          "role": "Variable Qualifier",
          "core": "Perm",
          "codelistNcit": "C71620",
          "codelistNcitAll": [
            "C71620"
          ]
        },
        {
          "order": 20,
          "name": "EGSTAT",
          "label": "Completion Status",
          "type": "Char",
          "role": "Record Qualifier",
          "core": "Perm",
          "codelistNcit": "C66789",
          "codelistNcitAll": [
            "C66789"
          ]
        },
        {
          "order": 21,
          "name": "EGREASND",
          "label": "Reason ECG Not Done",
          "type": "Char",
          "role": "Record Qualifier",
          "core": "Perm",
          "codelistNcit": null,
          "codelistNcitAll": []
        },
        {
          "order": 22,
          "name": "EGXFN",
          "label": "ECG External File Path",
          "type": "Char",
          "role": "Record Qualifier",
          "core": "Perm",
          "codelistNcit": null,
          "codelistNcitAll": []
        },
        {
          "order": 23,
          "name": "EGNAM",
          "label": "Vendor Name",
          "type": "Char",
          "role": "Record Qualifier",
          "core": "Perm",
          "codelistNcit": null,
          "codelistNcitAll": []
        },
        {
          "order": 24,
          "name": "EGMETHOD",
          "label": "Method of Test or Examination",
          "type": "Char",
          "role": "Record Qualifier",
          "core": "Perm",
          "codelistNcit": "C71151",
          "codelistNcitAll": [
            "C71151"
          ]
        },
        {
          "order": 25,
          "name": "EGLEAD",
          "label": "Lead Location Used for Measurement",
          "type": "Char",
          "role": "Record Qualifier",
          "core": "Perm",
          "codelistNcit": "C90013",
          "codelistNcitAll": [
            "C90013"
          ]
        },
        {
          "order": 26,
          "name": "EGLOBXFL",
          "label": "Last Observation Before Exposure Flag",
          "type": "Char",
          "role": "Record Qualifier",
          "core": "Exp",
          "codelistNcit": "C66742",
          "codelistNcitAll": [
            "C66742"
          ]
        },
        {
          "order": 27,
          "name": "EGBLFL",
          "label": "Baseline Flag",
          "type": "Char",
          "role": "Record Qualifier",
          "core": "Perm",
          "codelistNcit": "C66742",
          "codelistNcitAll": [
            "C66742"
          ]
        },
        {
          "order": 28,
          "name": "EGDRVFL",
          "label": "Derived Flag",
          "type": "Char",
          "role": "Record Qualifier",
          "core": "Perm",
          "codelistNcit": "C66742",
          "codelistNcitAll": [
            "C66742"
          ]
        },
        {
          "order": 29,
          "name": "EGEVAL",
          "label": "Evaluator",
          "type": "Char",
          "role": "Record Qualifier",
          "core": "Perm",
          "codelistNcit": "C78735",
          "codelistNcitAll": [
            "C78735"
          ]
        },
        {
          "order": 30,
          "name": "EGEVALID",
          "label": "Evaluator Identifier",
          "type": "Char",
          "role": "Variable Qualifier",
          "core": "Perm",
          "codelistNcit": "C96777",
          "codelistNcitAll": [
            "C96777"
          ]
        },
        {
          "order": 31,
          "name": "EGCLSIG",
          "label": "Clinically Significant, Collected",
          "type": "Char",
          "role": "Record Qualifier",
          "core": "Perm",
          "codelistNcit": "C66742",
          "codelistNcitAll": [
            "C66742"
          ]
        },
        {
          "order": 32,
          "name": "EGREPNUM",
          "label": "Repetition Number",
          "type": "Num",
          "role": "Record Qualifier",
          "core": "Perm",
          "codelistNcit": null,
          "codelistNcitAll": []
        },
        {
          "order": 33,
          "name": "VISITNUM",
          "label": "Visit Number",
          "type": "Num",
          "role": "Timing",
          "core": "Exp",
          "codelistNcit": null,
          "codelistNcitAll": []
        },
        {
          "order": 34,
          "name": "VISIT",
          "label": "Visit Name",
          "type": "Char",
          "role": "Timing",
          "core": "Perm",
          "codelistNcit": null,
          "codelistNcitAll": []
        },
        {
          "order": 35,
          "name": "VISITDY",
          "label": "Planned Study Day of Visit",
          "type": "Num",
          "role": "Timing",
          "core": "Perm",
          "codelistNcit": null,
          "codelistNcitAll": []
        },
        {
          "order": 36,
          "name": "TAETORD",
          "label": "Planned Order of Element within Arm",
          "type": "Num",
          "role": "Timing",
          "core": "Perm",
          "codelistNcit": null,
          "codelistNcitAll": []
        },
        {
          "order": 37,
          "name": "EPOCH",
          "label": "Epoch",
          "type": "Char",
          "role": "Timing",
          "core": "Perm",
          "codelistNcit": "C99079",
          "codelistNcitAll": [
            "C99079"
          ]
        },
        {
          "order": 38,
          "name": "EGDTC",
          "label": "Date/Time of ECG",
          "type": "Char",
          "role": "Timing",
          "core": "Exp",
          "codelistNcit": null,
          "codelistNcitAll": []
        },
        {
          "order": 39,
          "name": "EGDY",
          "label": "Study Day of ECG",
          "type": "Num",
          "role": "Timing",
          "core": "Perm",
          "codelistNcit": null,
          "codelistNcitAll": []
        },
        {
          "order": 40,
          "name": "EGTPT",
          "label": "Planned Time Point Name",
          "type": "Char",
          "role": "Timing",
          "core": "Perm",
          "codelistNcit": null,
          "codelistNcitAll": []
        },
        {
          "order": 41,
          "name": "EGTPTNUM",
          "label": "Planned Time Point Number",
          "type": "Num",
          "role": "Timing",
          "core": "Perm",
          "codelistNcit": null,
          "codelistNcitAll": []
        },
        {
          "order": 42,
          "name": "EGELTM",
          "label": "Planned Elapsed Time from Time Point Ref",
          "type": "Char",
          "role": "Timing",
          "core": "Perm",
          "codelistNcit": null,
          "codelistNcitAll": []
        },
        {
          "order": 43,
          "name": "EGTPTREF",
          "label": "Time Point Reference",
          "type": "Char",
          "role": "Timing",
          "core": "Perm",
          "codelistNcit": null,
          "codelistNcitAll": []
        },
        {
          "order": 44,
          "name": "EGRFTDTC",
          "label": "Date/Time of Reference Time Point",
          "type": "Char",
          "role": "Timing",
          "core": "Perm",
          "codelistNcit": null,
          "codelistNcitAll": []
        }
      ]
    },
    "FT": {
      "class": "Findings",
      "variables": [
        {
          "order": 1,
          "name": "STUDYID",
          "label": "Study Identifier",
          "type": "Char",
          "role": "Identifier",
          "core": "Req",
          "codelistNcit": null,
          "codelistNcitAll": []
        },
        {
          "order": 2,
          "name": "DOMAIN",
          "label": "Domain Abbreviation",
          "type": "Char",
          "role": "Identifier",
          "core": "Req",
          "codelistNcit": null,
          "codelistNcitAll": []
        },
        {
          "order": 3,
          "name": "USUBJID",
          "label": "Unique Subject Identifier",
          "type": "Char",
          "role": "Identifier",
          "core": "Req",
          "codelistNcit": null,
          "codelistNcitAll": []
        },
        {
          "order": 4,
          "name": "FTSEQ",
          "label": "Sequence Number",
          "type": "Num",
          "role": "Identifier",
          "core": "Req",
          "codelistNcit": null,
          "codelistNcitAll": []
        },
        {
          "order": 5,
          "name": "FTGRPID",
          "label": "Group ID",
          "type": "Char",
          "role": "Identifier",
          "core": "Perm",
          "codelistNcit": null,
          "codelistNcitAll": []
        },
        {
          "order": 6,
          "name": "FTREFID",
          "label": "Reference ID",
          "type": "Char",
          "role": "Identifier",
          "core": "Perm",
          "codelistNcit": null,
          "codelistNcitAll": []
        },
        {
          "order": 7,
