{
  "C101834": {
    "conceptId": "C101834",
    "name": "Normal Abnormal Response",
    "extensible": "false",
    "package": "sdtmct-2026-03-27",
    "terms": [
      {
        "submissionValue": "ABNORMAL",
        "conceptId": "C25401",
        "decode": "Abnormal"
      },
      {
        "submissionValue": "INDETERMINATE",
        "conceptId": "C48658",
        "decode": "Indeterminate"
      },
      {
        "submissionValue": "NORMAL",
        "conceptId": "C14165",
        "decode": "Normal"
      },
      {
        "submissionValue": "NOT EVALUABLE",
        "conceptId": "C62222",
        "decode": "Unevaluable"
      },
      {
        "submissionValue": "UNKNOWN",
        "conceptId": "C17998",
        "decode": "Unknown"
      }
    ]
  },
  "C102580": {
    "conceptId": "C102580",
    "name": "Laboratory Test Standard Character Result",
    "extensible": "true",
    "package": "sdtmct-2026-03-27",
    "terms": [
      {
        "submissionValue": "ABNORMAL",
        "conceptId": "C25401",
        "decode": "Abnormal"
      },
      {
        "submissionValue": "ABSENT",
        "conceptId": "C48190",
        "decode": "Absent"
      },
      {
        "submissionValue": "BORDERLINE",
        "conceptId": "C14157",
        "decode": "Borderline"
      },
      {
        "submissionValue": "DETECTED",
        "conceptId": "C191719",
        "decode": "Detected Finding"
      },
      {
        "submissionValue": "INDETERMINATE",
        "conceptId": "C48658",
        "decode": "Indeterminate"
      },
      {
        "submissionValue": "NEGATIVE",
        "conceptId": "C38757",
        "decode": "Negative Finding"
      },
      {
        "submissionValue": "NORMAL",
        "conceptId": "C14165",
        "decode": "Normal"
      },
      {
        "submissionValue": "NOT DETECTED",
        "conceptId": "C191300",
        "decode": "Not Detected"
      },
      {
        "submissionValue": "POSITIVE",
        "conceptId": "C38758",
        "decode": "Positive Finding"
      },
      {
        "submissionValue": "PRESENT",
        "conceptId": "C25626",
        "decode": "Present"
      },
      {
        "submissionValue": "STRONGLY POSITIVE",
        "conceptId": "C191301",
        "decode": "Strongly Positive"
      },
      {
        "submissionValue": "TOO NUMEROUS TO COUNT",
        "conceptId": "C191303",
        "decode": "Too Numerous to Count"
      },
      {
        "submissionValue": "TRACE",
        "conceptId": "C80218",
        "decode": "Trace"
      },
      {
        "submissionValue": "WEAKLY POSITIVE",
        "conceptId": "C191302",
        "decode": "Weakly Positive"
      }
    ],
    "sourcePackage": "sdtmct-2025-09-26"
  },
  "C111110": {
    "conceptId": "C111110",
    "name": "Device Events Action Taken with Device",
    "extensible": "true",
    "package": "sdtmct-2026-03-27",
    "terms": [
      {
        "submissionValue": "CALIBRATION",
        "conceptId": "C69187",
        "decode": "Calibration"
      },
      {
        "submissionValue": "REMOVAL",
        "conceptId": "C61575",
        "decode": "Extraction"
      },
      {
        "submissionValue": "REPROGRAMMING",
        "conceptId": "C111306",
        "decode": "Reprogram"
      }
    ]
  },
  "C114118": {
    "conceptId": "C114118",
    "name": "Protocol Milestone",
    "extensible": "true",
    "package": "sdtmct-2026-03-27",
    "terms": [
      {
        "submissionValue": "DECLINED TO CONTINUE INTO NEXT TRIAL ELEMENT",
        "conceptId": "C186210",
        "decode": "Declined to Continue Into Next Trial Element"
      },
      {
        "submissionValue": "DECLINED TO CONTINUE INTO SURVIVAL FOLLOW-UP",
        "conceptId": "C176358",
        "decode": "Declined To Continue Into Survival Follow-Up"
      },
      {
        "submissionValue": "ELIGIBILITY CRITERIA MET",
        "conceptId": "C132447",
        "decode": "Eligibility Criteria Met By Subject"
      },
      {
        "submissionValue": "ELIGIBILITY CRITERIA NOT MET",
        "conceptId": "C164344",
        "decode": "Did Not Meet Eligibility Criteria"
      },
      {
        "submissionValue": "ENTERED INTO TRIAL",
        "conceptId": "C161417",
        "decode": "Subject Entered Into Trial"
      },
      {
        "submissionValue": "INFORMED ASSENT OBTAINED",
        "conceptId": "C161418",
        "decode": "Informed Assent"
      },
      {
        "submissionValue": "INFORMED CONSENT DECLINED FOR PROTOCOL-SPECIFIED ACTIVITY",
        "conceptId": "C202445",
        "decode": "Informed Consent Declined For Protocol-Specified Activity"
      },
      {
        "submissionValue": "INFORMED CONSENT OBTAINED FOR PROTOCOL-SPECIFIED ACTIVITY",
        "conceptId": "C202444",
        "decode": "Informed Consent Obtained For Protocol-Specified Activity"
      },
      {
        "submissionValue": "INFORMED CONSENT OBTAINED",
        "conceptId": "C16735",
        "decode": "Informed Consent"
      },
      {
        "submissionValue": "OPTED TO CONTINUE INTO NEXT TRIAL ELEMENT",
        "conceptId": "C186211",
        "decode": "Opted to Continue Into Next Trial Element"
      },
      {
        "submissionValue": "OPTED TO CONTINUE INTO SURVIVAL FOLLOW-UP",
        "conceptId": "C176357",
        "decode": "Opted To Continue Into Survival Follow-Up"
      },
      {
        "submissionValue": "RANDOMIZED",
        "conceptId": "C114209",
        "decode": "Subject is Randomized"
      },
      {
        "submissionValue": "RE-RANDOMIZED",
        "conceptId": "C186212",
        "decode": "Re-randomized"
      }
    ]
  },
  "C120522": {
    "conceptId": "C120522",
    "name": "Holter ECG Results",
    "extensible": "true",
    "package": "sdtmct-2026-03-27",
    "terms": [
      {
        "submissionValue": "1ST DEGREE AV BLOCK",
        "conceptId": "C111088",
        "decode": "AV Block First Degree by ECG Finding"
      },
      {
        "submissionValue": "2:1 AV BLOCK",
        "conceptId": "C71044",
        "decode": "2:1 Atrioventricular Block by ECG Finding"
      },
      {
        "submissionValue": "2ND DEGREE AV BLOCK",
        "conceptId": "C62016",
        "decode": "AV Block Second Degree by ECG Finding"
      },
      {
        "submissionValue": "3RD DEGREE AV BLOCK",
        "conceptId": "C111091",
        "decode": "AV Block Third Degree by ECG Finding"
      },
      {
        "submissionValue": "50 Hz NOISE",
        "conceptId": "C114165",
        "decode": "50 Hertz Noise by ECG Finding"
      },
      {
        "submissionValue": "60 Hz NOISE",
        "conceptId": "C114164",
        "decode": "60 Hertz Noise by ECG Finding"
      },
      {
        "submissionValue": "ABERRANTLY CONDUCTED COMPLEXES",
        "conceptId": "C116132",
        "decode": "Aberrantly Conducted Complexes by ECG Finding"
      },
      {
        "submissionValue": "AC NOISE",
        "conceptId": "C114149",
        "decode": "Alternating Current Noise by ECG Finding"
      },
      {
        "submissionValue": "ACCELERATED IDIOVENTRICULAR RHYTHM",
        "conceptId": "C62266",
        "decode": "Accelerated Idioventricular Rhythm by ECG Finding"
      },
      {
        "submissionValue": "ACUTE ANTERIOR WALL MYOCARDIAL INFARCTION",
        "conceptId": "C71065",
        "decode": "Acute Anterior Myocardial Infarction by ECG Finding"
      },
      {
        "submissionValue": "ACUTE ANTEROLATERAL WALL MYOCARDIAL INFARCTION",
        "conceptId": "C102591",
        "decode": "Acute Anterolateral Myocardial Infarction by ECG Finding"
      },
      {
        "submissionValue": "ACUTE ANTEROSEPTAL WALL MYOCARDIAL INFARCTION",
        "conceptId": "C102592",
        "decode": "Acute Anteroseptal Myocardial Infarction by ECG Finding"
      },
      {
        "submissionValue": "ACUTE EXTENSIVE ANTERIOR WALL MYOCARDIAL INFARCTION",
        "conceptId": "C106496",
        "decode": "Acute Extensive Anterior Wall Myocardial Infarction by ECG Finding"
      },
      {
        "submissionValue": "ACUTE HIGH LATERAL WALL MYOCARDIAL INFARCTION",
        "conceptId": "C102593",
        "decode": "Acute High Lateral Myocardial Infarction by ECG Finding"
      },
      {
        "submissionValue": "ACUTE INFERIOR WALL MYOCARDIAL INFARCTION",
        "conceptId": "C71066",
        "decode": "Acute Inferior Myocardial Infarction by ECG Finding"
      },
      {
        "submissionValue": "ACUTE LATERAL WALL MYOCARDIAL INFARCTION",
        "conceptId": "C71067",
        "decode": "Acute Lateral Myocardial Infarction by ECG Finding"
      },
      {
        "submissionValue": "ACUTE MYOCARDIAL INFARCTION",
        "conceptId": "C101596",
        "decode": "Acute Myocardial Infarction by ECG Finding"
      },
      {
        "submissionValue": "ACUTE POSTERIOR WALL MYOCARDIAL INFARCTION",
        "conceptId": "C71068",
        "decode": "Acute Posterior Myocardial Infarction by ECG Finding"
      },
      {
        "submissionValue": "ACUTE RIGHT VENTRICULAR WALL MYOCARDIAL INFARCTION",
        "conceptId": "C102594",
        "decode": "Acute Right Ventricular Myocardial Infarction by ECG Finding"
      },
      {
        "submissionValue": "ACUTE SEPTAL WALL MYOCARDIAL INFARCTION",
        "conceptId": "C102595",
        "decode": "Acute Septal Myocardial Infarction by ECG Finding"
      },
      {
        "submissionValue": "ADVANCED/HIGH GRADE AV BLOCK",
        "conceptId": "C102642",
        "decode": "High Grade Atrioventricular Block by ECG Finding"
      },
      {
        "submissionValue": "ALL PRECORDIAL ELECTRODES DISCONNECTED",
        "conceptId": "C114159",
        "decode": "All Precordial Electrodes Are Disconnected by ECG Finding"
      },
      {
        "submissionValue": "ANTERIOR WALL MYOCARDIAL INFARCTION",
        "conceptId": "C71069",
        "decode": "Anterior Myocardial Infarction by ECG Finding"
      },
      {
        "submissionValue": "ANTEROLATERAL WALL MYOCARDIAL INFARCTION",
        "conceptId": "C35303",
        "decode": "Anterolateral Myocardial Infarction by ECG Finding"
      },
      {
        "submissionValue": "ANTEROSEPTAL WALL MYOCARDIAL INFARCTION",
        "conceptId": "C35304",
        "decode": "Anteroseptal Myocardial Infarction by ECG Finding"
      },
      {
        "submissionValue": "ARTIFACT",
        "conceptId": "C114162",
        "decode": "Artifact Lead Signal by ECG Finding"
      },
      {
        "submissionValue": "ASYSTOLE",
        "conceptId": "C116130",
        "decode": "Asystole by ECG Finding"
      },
      {
        "submissionValue": "ATRIAL BIGEMINY",
        "conceptId": "C102596",
        "decode": "Atrial Bigeminy by ECG Finding"
      },
      {
        "submissionValue": "ATRIAL COUPLETS",
        "conceptId": "C102597",
        "decode": "Atrial Couplet by ECG Finding"
      },
      {
        "submissionValue": "ATRIAL ENLARGEMENT",
        "conceptId": "C71039",
        "decode": "Atrial Enlargement by ECG Finding"
      },
      {
        "submissionValue": "ATRIAL FIBRILLATION",
        "conceptId": "C111092",
        "decode": "Atrial Fibrillation by ECG Finding"
      },
      {
        "submissionValue": "ATRIAL FLUTTER",
        "conceptId": "C111094",
        "decode": "Atrial Flutter by ECG Finding"
      },
      {
        "submissionValue": "ATRIAL TACHYCARDIA WITH AV BLOCK",
        "conceptId": "C119249",
        "decode": "Atrial Tachycardia With AV Block by ECG Finding"
      },
      {
        "submissionValue": "ATRIAL TACHYCARDIA",
        "conceptId": "C111105",
        "decode": "Atrial Tachycardia by ECG Finding"
      },
      {
        "submissionValue": "ATRIAL TRIGEMINY",
        "conceptId": "C102598",
        "decode": "Atrial Trigeminy by ECG Finding"
      },
      {
        "submissionValue": "ATRIOVENTRICULAR DISSOCIATION",
        "conceptId": "C71045",
        "decode": "Atrioventricular Dissociation by ECG Finding"
      },
      {
        "submissionValue": "AV MOBITZ I",
        "conceptId": "C111089",
        "decode": "AV Block Second Degree Mobitz Type I by ECG Finding"
      },
      {
        "submissionValue": "AV MOBITZ II",
        "conceptId": "C111090",
        "decode": "AV Block Second Degree Mobitz Type II by ECG Finding"
      },
      {
        "submissionValue": "AV NODE RE-ENTRY",
        "conceptId": "C35058",
        "decode": "Atrioventricular Nodal Reentry Tachycardia by ECG Finding"
      },
      {
        "submissionValue": "AV RE-ENTRANT TACHYCARDIA",
        "conceptId": "C62261",
        "decode": "Atrioventricular Reentrant Tachycardia by ECG Finding"
      },
      {
        "submissionValue": "BASELINE WANDER",
        "conceptId": "C114147",
        "decode": "Baseline Wander by ECG Finding"
      },
      {
        "submissionValue": "BIFASCICULAR BLOCK",
        "conceptId": "C71046",
        "decode": "Bifascicular Block by ECG Finding"
      },
      {
        "submissionValue": "BIVENTRICULAR HYPERTROPHY",
        "conceptId": "C106502",
        "decode": "Biventricular Hypertrophy by ECG Finding"
      },
      {
        "submissionValue": "BORDERLINE QTCB",
        "conceptId": "C92228",
        "decode": "Borderline QTcB"
      },
      {
        "submissionValue": "BORDERLINE QTCF",
        "conceptId": "C92229",
        "decode": "Borderline QTcF"
      },
      {
        "submissionValue": "BRADYCARDIA",
        "conceptId": "C111120",
        "decode": "Bradycardia by ECG Finding"
      },
      {
        "submissionValue": "BRUGADA SYNDROME PATTERN",
        "conceptId": "C106503",
        "decode": "Brugada Syndrome Pattern by ECG Finding"
      },
      {
        "submissionValue": "DEFIBRILLATOR DISCHARGE",
        "conceptId": "C120609",
        "decode": "Defibrillator Discharge by ECG Finding"
      },
      {
        "submissionValue": "DELTA WAVE",
        "conceptId": "C62258",
        "decode": "Delta Wave by ECG Finding"
      },
      {
        "submissionValue": "DEXTROCARDIA",
        "conceptId": "C102623",
        "decode": "Dextrocardia by ECG Finding"
      },
      {
        "submissionValue": "EARLY R WAVE TRANSITION",
        "conceptId": "C102628",
        "decode": "Early R Wave Transition by ECG Finding"
      },
      {
        "submissionValue": "EARLY REPOLARIZATION",
        "conceptId": "C102629",
        "decode": "Early Repolarization"
      },
      {
        "submissionValue": "ECG ACQUIRED WITH PRECORDIAL ELECTRODES PLACED ON RIGHT CHEST",
        "conceptId": "C114175",
        "decode": "ECG Acquired with Precordial Electrodes Placed on the Right Chest"
      },
      {
        "submissionValue": "ECG EVALUATION NOT PERFORMED DUE TO CORRUPTED DIGITAL ECG FILE",
        "conceptId": "C114181",
        "decode": "ECG Evaluation Not Performed Due to Corrupted Digital ECG File"
      },
      {
        "submissionValue": "ECTOPIC ATRIAL RHYTHM",
        "conceptId": "C62245",
        "decode": "Ectopic Atrial Rhythm by ECG Finding"
      },
      {
        "submissionValue": "ECTOPIC VENTRICULAR RHYTHM",
        "conceptId": "C71042",
        "decode": "Ectopic Ventricular Rhythm by ECG Finding"
      },
      {
        "submissionValue": "ELECTRICAL ALTERNANS",
        "conceptId": "C71035",
        "decode": "Electrical Alternans by ECG Finding"
      },
      {
        "submissionValue": "EXTENSIVE ANTERIOR WALL MYOCARDIAL INFARCTION",
        "conceptId": "C106520",
        "decode": "Extensive Anterior Wall Myocardial Infarction by ECG Finding"
      },
      {
        "submissionValue": "FREQUENT PREMATURE ATRIAL COMPLEXES",
        "conceptId": "C120610",
        "decode": "Frequent Premature Atrial Complexes by ECG Finding"
      },
      {
        "submissionValue": "FREQUENT PREMATURE VENTRICULAR COMPLEXES",
        "conceptId": "C120611",
        "decode": "Frequent Premature Ventricular Complexes by ECG Finding"
      },
      {
        "submissionValue": "FUSION COMPLEX",
        "conceptId": "C102639",
        "decode": "Fusion Complex"
      },
      {
        "submissionValue": "HIGH LATERAL WALL MYOCARDIAL INFARCTION",
        "conceptId": "C102643",
        "decode": "High Lateral Myocardial Infarction by ECG Finding"
      },
      {
        "submissionValue": "HOLTER LEAD FAIL",
        "conceptId": "C120612",
        "decode": "Holter Lead Fail by ECG Finding"
      },
      {
        "submissionValue": "IDIOVENTRICULAR RHYTHM",
        "conceptId": "C50599",
        "decode": "Idioventricular Rhythm"
      },
      {
        "submissionValue": "INCOMPLETE LEFT BUNDLE BRANCH BLOCK",
        "conceptId": "C71047",
        "decode": "Incomplete Left Bundle Branch Block by ECG Finding"
      },
      {
        "submissionValue": "INCOMPLETE RIGHT BUNDLE BRANCH BLOCK",
        "conceptId": "C71048",
        "decode": "Incomplete Right Bundle Branch Block by ECG Finding"
      },
      {
        "submissionValue": "INDETERMINATE QRS AXIS",
        "conceptId": "C102701",
        "decode": "QRS Axis Indeterminate"
      },
      {
        "submissionValue": "INFERIOR WALL MYOCARDIAL INFARCTION",
        "conceptId": "C35398",
        "decode": "Inferior Myocardial Infarction by ECG Finding"
      },
      {
        "submissionValue": "INTRAATRIAL CONDUCTION DELAY",
        "conceptId": "C71073",
        "decode": "Intra-Atrial Conduction Delay by ECG Finding"
      },
      {
        "submissionValue": "INTRAVENTRICULAR CONDUCTION DELAY, NONSPECIFIC",
        "conceptId": "C62271",
        "decode": "Nonspecific Intraventricular Conduction Delay by ECG Finding"
      },
      {
        "submissionValue": "ISORHYTHMIC DISSOCIATION",
        "conceptId": "C62248",
        "decode": "Isorhythmic Atrioventricular Dissociation"
      },
      {
        "submissionValue": "J POINT ELEVATION",
        "conceptId": "C71030",
        "decode": "J Point Elevation"
      },
      {
        "submissionValue": "JUNCTIONAL BRADYCARDIA",
        "conceptId": "C71074",
        "decode": "Junctional Bradycardia by ECG Finding"
      },
      {
        "submissionValue": "JUNCTIONAL ESCAPE COMPLEXES",
        "conceptId": "C116129",
        "decode": "Junctional Escape Complexes by ECG Finding"
      },
      {
        "submissionValue": "JUNCTIONAL ESCAPE RHYTHM",
        "conceptId": "C135393",
        "decode": "Junctional Escape Rhythm by ECG Finding"
      },
      {
        "submissionValue": "JUNCTIONAL PREMATURE COMPLEX",
        "conceptId": "C102652",
        "decode": "Junctional Premature Complex by ECG Finding"
      },
      {
        "submissionValue": "JUNCTIONAL RHYTHM",
        "conceptId": "C71051",
        "decode": "Junctional Rhythm by ECG Finding"
      },
      {
        "submissionValue": "JUNCTIONAL TACHYCARDIA",
        "conceptId": "C35059",
        "decode": "Junctional Tachycardia by ECG Finding"
      },
      {
        "submissionValue": "LATE R WAVE TRANSITION",
        "conceptId": "C102653",
        "decode": "Late R Wave Transition by ECG Finding"
      },
      {
        "submissionValue": "LATERAL WALL MYOCARDIAL INFARCTION",
        "conceptId": "C35586",
        "decode": "Lateral Myocardial Infarction by ECG Finding"
      },
      {
        "submissionValue": "LEFT ANTERIOR FASCICULAR BLOCK",
        "conceptId": "C62267",
        "decode": "Left Anterior Fascicular Block by ECG Finding"
      },
      {
        "submissionValue": "LEFT ATRIAL ABNORMALITY",
        "conceptId": "C71040",
        "decode": "P-mitrale by ECG Finding"
      },
      {
        "submissionValue": "LEFT BUNDLE BRANCH BLOCK",
        "conceptId": "C62269",
        "decode": "Left Bundle Branch Block by ECG Finding"
      },
      {
        "submissionValue": "LEFT POSTERIOR FASCICULAR BLOCK",
        "conceptId": "C62268",
        "decode": "Left Posterior Fascicular Block by ECG Finding"
      },
      {
        "submissionValue": "LEFT VENTRICULAR CONDUCTION DELAY",
        "conceptId": "C92231",
        "decode": "Left Ventricular Conduction Delay by ECG Finding"
      },
      {
        "submissionValue": "LEFT VENTRICULAR HYPERTROPHY WITH STRAIN",
        "conceptId": "C102655",
        "decode": "Left Ventricular Hypertrophy with Strain by ECG Finding"
      },
      {
        "submissionValue": "LEFT VENTRICULAR HYPERTROPHY",
        "conceptId": "C71076",
        "decode": "Left Ventricular Hypertrophy by ECG Finding"
      },
      {
        "submissionValue": "LIMB ELECTRODE(S) DISCONNECTED",
        "conceptId": "C114151",
        "decode": "Disconnected Limb Electrodes by ECG Finding"
      },
      {
        "submissionValue": "LIMB ELECTRODES INTERCHANGED",
        "conceptId": "C114150",
        "decode": "Interchanged Limb Electrodes by ECG Finding"
      },
      {
        "submissionValue": "LOW AMPLITUDE SIGNAL",
        "conceptId": "C114166",
        "decode": "Low Amplitude QRS Complex by ECG Finding"
      },
      {
        "submissionValue": "LOW QRS VOLTAGE",
        "conceptId": "C71078",
        "decode": "Low QRS Voltage by ECG Finding"
      },
      {
        "submissionValue": "LOW VOLTAGE - LIMB LEADS ONLY",
        "conceptId": "C116133",
        "decode": "Low Voltage in Limb Leads Only by ECG Finding"
      },
      {
        "submissionValue": "MARKED SINUS BRADYCARDIA",
        "conceptId": "C120613",
        "decode": "Marked Sinus Bradycardia by ECG Finding"
      },
      {
        "submissionValue": "MULTIFOCAL ATRIAL TACHYCARDIA",
        "conceptId": "C71050",
        "decode": "Multifocal Atrial Tachycardia by ECG Finding"
      },
      {
        "submissionValue": "MUSCLE TREMOR",
        "conceptId": "C114148",
        "decode": "Muscle Tremor Artifact"
      },
      {
        "submissionValue": "MYOCARDIAL INFARCTION",
        "conceptId": "C101589",
        "decode": "Myocardial Infarction by ECG Finding"
      },
      {
        "submissionValue": "NEW ANTERIOR WALL MYOCARDIAL INFARCTION",
        "conceptId": "C102732",
        "decode": "New Anterior Myocardial Infarction by ECG Finding"
      },
      {
        "submissionValue": "NEW ANTEROLATERAL WALL MYOCARDIAL INFARCTION",
        "conceptId": "C102733",
        "decode": "New Anterolateral Myocardial Infarction by ECG Finding"
      },
      {
        "submissionValue": "NEW ANTEROSEPTAL WALL MYOCARDIAL INFARCTION",
        "conceptId": "C102734",
        "decode": "New Anteroseptal Myocardial Infarction by ECG Finding"
      },
      {
        "submissionValue": "NEW EXTENSIVE ANTERIOR WALL MYOCARDIAL INFARCTION",
        "conceptId": "C102735",
        "decode": "New Extensive Anterior Myocardial Infarction by ECG Finding"
      },
      {
        "submissionValue": "NEW HIGH LATERAL WALL MYOCARDIAL INFARCTION",
        "conceptId": "C102736",
        "decode": "New High Lateral Myocardial Infarction by ECG Finding"
      },
      {
        "submissionValue": "NEW INFERIOR WALL MYOCARDIAL INFARCTION",
        "conceptId": "C102737",
        "decode": "New Inferior Myocardial Infarction by ECG Finding"
      },
      {
        "submissionValue": "NEW LATERAL WALL MYOCARDIAL INFARCTION",
        "conceptId": "C102738",
        "decode": "New Lateral Myocardial Infarction by ECG Finding"
      },
      {
        "submissionValue": "NEW MYOCARDIAL INFARCTION",
        "conceptId": "C102731",
        "decode": "New Myocardial Infarction by ECG Finding"
      },
      {
        "submissionValue": "NEW POSTERIOR WALL MYOCARDIAL INFARCTION",
        "conceptId": "C106548",
        "decode": "New Posterior Wall Myocardial Infarction by ECG Finding"
      },
      {
        "submissionValue": "NEW SEPTAL WALL MYOCARDIAL INFARCTION",
        "conceptId": "C102739",
        "decode": "New Septal Myocardial Infarction by ECG Finding"
      },
      {
        "submissionValue": "NO ECG WAVEFORMS PRESENT",
        "conceptId": "C114163",
        "decode": "ECG Waveforms Not Present"
      },
      {
        "submissionValue": "NON Q WAVE MYOCARDIAL INFARCTION",
        "conceptId": "C71080",
        "decode": "Non Q Wave Myocardial Infarction by ECG Finding"
      },
      {
        "submissionValue": "NON-DIAGNOSTIC Q WAVES",
        "conceptId": "C116134",
        "decode": "Non-Diagnostic Q Waves by ECG Finding"
      },
      {
        "submissionValue": "NON-SPECIFIC ST-T CHANGES",
        "conceptId": "C71031",
        "decode": "Non-Specific ST-T Changes by ECG Finding"
      },
      {
        "submissionValue": "NON-SUSTAINED ACCELERATED IDIOVENTRICULAR RHYTHM",
        "conceptId": "C202348",
        "decode": "Non-Sustained Accelerated Idioventricular Rhythm by ECG Finding"
      },
      {
        "submissionValue": "NON-SUSTAINED ATRIAL TACHYCARDIA",
        "conceptId": "C102680",
        "decode": "Non-Sustained Atrial Tachycardia by ECG Finding"
      },
      {
        "submissionValue": "NON-SUSTAINED VENTRICULAR TACHYCARDIA",
        "conceptId": "C71053",
        "decode": "Non-Sustained Ventricular Tachycardia by ECG Finding"
      },
      {
        "submissionValue": "NONCONDUCTED P WAVE PHYSIOLOGY NOT DEFINED",
        "conceptId": "C135394",
        "decode": "Nonconducted P Wave Physiology Not Defined by ECG Finding"
      },
      {
        "submissionValue": "NONSUSTAINED SUPRAVENTRICULAR TACHYCARDIA",
        "conceptId": "C120614",
        "decode": "Nonsustained Supraventricular Tachycardia by ECG Finding"
      },
      {
        "submissionValue": "NORMAL SINUS RHYTHM",
        "conceptId": "C102681",
        "decode": "Normal Sinus Rhythm"
      },
      {
        "submissionValue": "NORTHWEST AXIS",
        "conceptId": "C102634",
        "decode": "Extreme Right Axis Deviation"
      },
      {
        "submissionValue": "NOTCHED T WAVES",
        "conceptId": "C71032",
        "decode": "T Wave Notched by ECG Finding"
      },
      {
        "submissionValue": "OLD OR AGE INDETERMINATE ANTERIOR WALL MYOCARDIAL INFARCTION",
        "conceptId": "C102684",
        "decode": "Old or Age Indeterminate Anterior Myocardial Infarction by ECG Finding"
      },
      {
        "submissionValue": "OLD OR AGE INDETERMINATE ANTEROLATERAL WALL MYOCARDIAL INFARCTION",
        "conceptId": "C102685",
        "decode": "Old or Age Indeterminate Anterolateral Myocardial Infarction by ECG Finding"
      },
      {
        "submissionValue": "OLD OR AGE INDETERMINATE ANTEROSEPTAL WALL MYOCARDIAL INFARCTION",
        "conceptId": "C102686",
        "decode": "Old or Age Indeterminate Anteroseptal Myocardial Infarction by ECG Finding"
      },
      {
        "submissionValue": "OLD OR AGE INDETERMINATE EXTENSIVE ANTERIOR WALL MYOCARDIAL INFARCTION",
        "conceptId": "C102687",
        "decode": "Old or Age Indeterminate Extensive Anterior Myocardial Infarction by ECG Finding"
      },
      {
        "submissionValue": "OLD OR AGE INDETERMINATE HIGH LATERAL WALL MYOCARDIAL INFARCTION",
        "conceptId": "C102688",
        "decode": "Old or Age Indeterminate High Lateral Myocardial Infarction by ECG Finding"
      },
      {
        "submissionValue": "OLD OR AGE INDETERMINATE INFERIOR WALL MYOCARDIAL INFARCTION",
        "conceptId": "C102689",
        "decode": "Old or Age Indeterminate Inferior Myocardial Infarction by ECG Finding"
      },
      {
        "submissionValue": "OLD OR AGE INDETERMINATE LATERAL WALL MYOCARDIAL INFARCTION",
        "conceptId": "C102690",
        "decode": "Old or Age Indeterminate Lateral Myocardial Infarction by ECG Finding"
      },
      {
        "submissionValue": "OLD OR AGE INDETERMINATE POSTERIOR WALL MYOCARDIAL INFARCTION",
        "conceptId": "C102691",
        "decode": "Old or Age Indeterminate Posterior Myocardial Infarction by ECG Finding"
      },
      {
        "submissionValue": "OLD OR AGE INDETERMINATE SEPTAL WALL MYOCARDIAL INFARCTION",
        "conceptId": "C102693",
        "decode": "Old or Age Indeterminate Septal Myocardial Infarction by ECG Finding"
      },
      {
        "submissionValue": "OLD OR AGE INDETERMINATE WALL MYOCARDIAL INFARCTION",
        "conceptId": "C101597",
        "decode": "Old Myocardial Infarction by ECG Finding"
      },
      {
        "submissionValue": "OLD OR AGE UNDETERMINED RIGHT VENTRICULAR MYOCARDIAL INFARCTION",
        "conceptId": "C102692",
        "decode": "Old or Age Indeterminate Right Ventricular Myocardial Infarction by ECG Finding"
      },
      {
        "submissionValue": "OTHER INCORRECT ELECTRODE PLACEMENT",
        "conceptId": "C114176",
        "decode": "Other Incorrect Electrode Placement"
      },
      {
        "submissionValue": "P WAVE ABNORMALITY",
        "conceptId": "C90430",
        "decode": "P Wave Abnormality by ECG Finding"
      },
      {
        "submissionValue": "P WAVE NOTCHED",
        "conceptId": "C90431",
        "decode": "P Wave Notched by ECG Finding"
      },
      {
        "submissionValue": "PACED ATRIAL AND VENTRICULAR RHYTHM",
        "conceptId": "C92232",
        "decode": "Paced Atrial And Ventricular Rhythm"
      },
      {
        "submissionValue": "PACED ATRIAL RHYTHM",
        "conceptId": "C92233",
        "decode": "Paced Atrial Rhythm"
      },
      {
        "submissionValue": "PACED RHYTHM",
        "conceptId": "C88140",
        "decode": "Paced Rhythm"
      },
      {
        "submissionValue": "PACED VENTRICULAR RHYTHM",
        "conceptId": "C92234",
        "decode": "Paced Ventricular Rhythm"
      },
      {
        "submissionValue": "PAROXYSMAL ATRIAL FIBRILLATION",
        "conceptId": "C120615",
        "decode": "Paroxysmal Atrial Fibrillation by ECG Finding"
      },
      {
        "submissionValue": "PAROXYSMAL ATRIAL FLUTTER",
        "conceptId": "C201381",
        "decode": "Paroxysmal Atrial Flutter"
      },
      {
        "submissionValue": "PAROXYSMAL AV BLOCK",
        "conceptId": "C62250",
        "decode": "Paroxysmal Atrioventricular Block by ECG Finding"
      },
      {
        "submissionValue": "PAROXYSMAL VENTRICULAR TACHYCARDIA",
        "conceptId": "C34902",
        "decode": "Paroxysmal Ventricular Tachycardia by ECG Finding"
      },
      {
        "submissionValue": "PAUSE GREATER THAN 3.0 SECONDS",
        "conceptId": "C119251",
        "decode": "Pause Greater Than Three Seconds by ECG Finding"
      },
      {
        "submissionValue": "PAUSE",
        "conceptId": "C119250",
        "decode": "Pause by ECG Finding"
      },
      {
        "submissionValue": "PERSISTENT ATRIAL FIBRILLATION",
        "conceptId": "C120616",
        "decode": "Persistent Atrial Fibrillation by ECG Finding"
      },
      {
        "submissionValue": "PERSISTENT ATRIAL FLUTTER",
        "conceptId": "C201380",
        "decode": "Persistent Atrial Flutter"
      },
      {
        "submissionValue": "POOR QUALITY ECG",
        "conceptId": "C114172",
        "decode": "Poor Quality ECG"
      },
      {
        "submissionValue": "POOR R WAVE PROGRESSION",
        "conceptId": "C71033",
        "decode": "Poor R Wave Progression by ECG Finding"
      },
      {
        "submissionValue": "POSTERIOR WALL MYOCARDIAL INFARCTION",
        "conceptId": "C35399",
        "decode": "Posterior Myocardial Infarction by ECG Finding"
      },
      {
        "submissionValue": "PR SEGMENT DEPRESSION",
        "conceptId": "C116135",
        "decode": "PR Segment Depression by ECG Finding"
      },
      {
        "submissionValue": "PRE-EXCITATION",
        "conceptId": "C34940",
        "decode": "Pre-Excitation Syndrome"
      },
      {
        "submissionValue": "PRECORDIAL ELECTRODE V1 DISCONNECTED",
        "conceptId": "C114153",
        "decode": "Disconnected Precordial Electrode V1 by ECG Finding"
      },
      {
        "submissionValue": "PRECORDIAL ELECTRODE V2 DISCONNECTED",
        "conceptId": "C114154",
        "decode": "Disconnected Precordial Electrode V2 by ECG Finding"
      },
      {
        "submissionValue": "PRECORDIAL ELECTRODE V3 DISCONNECTED",
        "conceptId": "C114155",
        "decode": "Disconnected Precordial Electrode V3 by ECG Finding"
      },
      {
        "submissionValue": "PRECORDIAL ELECTRODE V4 DISCONNECTED",
        "conceptId": "C114156",
        "decode": "Disconnected Precordial Electrode V4 by ECG Finding"
      },
      {
        "submissionValue": "PRECORDIAL ELECTRODE V5 DISCONNECTED",
        "conceptId": "C114157",
        "decode": "Disconnected Precordial Electrode V5 by ECG Finding"
      },
      {
        "submissionValue": "PRECORDIAL ELECTRODE V6 DISCONNECTED",
        "conceptId": "C114158",
        "decode": "Disconnected Precordial Electrode V6 by ECG Finding"
      },
      {
        "submissionValue": "PRECORDIAL ELECTRODE(S) POSITIONED INCORRECTLY",
        "conceptId": "C114160",
        "decode": "Incorrectly Positioned Precordial Electrodes by ECG Finding"
      },
      {
        "submissionValue": "PRECORDIAL ELECTRODES INTERCHANGED",
        "conceptId": "C114152",
        "decode": "Interchanged Precordial Electrodes by ECG Finding"
      },
      {
        "submissionValue": "PREMATURE ATRIAL COMPLEXES BLOCKED",
        "conceptId": "C102603",
        "decode": "Blocked Atrial Premature Complex by ECG Finding"
      },
      {
        "submissionValue": "PREMATURE ATRIAL COMPLEXES MULTIFOCAL",
        "conceptId": "C102672",
        "decode": "Multifocal Atrial Premature Complex by ECG Finding"
      },
      {
        "submissionValue": "PREMATURE ATRIAL COMPLEXES UNIFOCAL",
        "conceptId": "C102724",
        "decode": "Unifocal Atrial Premature Complex by ECG Finding"
      },
      {
        "submissionValue": "PREMATURE ATRIAL COMPLEXES",
        "conceptId": "C62257",
        "decode": "Atrial Premature Complex by ECG Finding"
      },
      {
        "submissionValue": "PREMATURE VENTRICULAR COMPLEX INTERPOLATED",
        "conceptId": "C107100",
        "decode": "Interpolated Premature Ventricular Complex by ECG Finding"
      },
      {
        "submissionValue": "PREMATURE VENTRICULAR COMPLEX",
        "conceptId": "C62256",
        "decode": "Ventricular Premature Complex by ECG Finding"
      },
      {
        "submissionValue": "PREMATURE VENTRICULAR COMPLEXES MULTIFOCAL",
        "conceptId": "C102673",
        "decode": "Multifocal Ventricular Premature Complex by ECG Finding"
      },
      {
        "submissionValue": "PREMATURE VENTRICULAR COMPLEXES UNIFOCAL",
        "conceptId": "C102725",
        "decode": "Unifocal Ventricular Premature Complex by ECG Finding"
      },
      {
        "submissionValue": "PROLONGED QT",
        "conceptId": "C71034",
        "decode": "Prolonged QT Interval by ECG Finding"
      },
      {
        "submissionValue": "PROLONGED ST SEGMENT",
        "conceptId": "C116137",
        "decode": "Prolonged ST Segment by ECG Finding"
      },
      {
        "submissionValue": "Q AXIS, LEFT AXIS DEVIATION",
        "conceptId": "C71094",
        "decode": "Q Axis Left Axis Deviation"
      },
      {
        "submissionValue": "Q AXIS, RIGHT AXIS DEVIATION",
        "conceptId": "C71095",
        "decode": "Q Axis Right Axis Deviation"
      },
      {
        "submissionValue": "QRS COMPLEX ABNORMALITY",
        "conceptId": "C90440",
        "decode": "QRS Complex Abnormality by ECG Finding"
      },
      {
        "submissionValue": "QTC PROLONGATION",
        "conceptId": "C83817",
        "decode": "Corrected Prolonged QT Interval by ECG Finding"
      },
      {
        "submissionValue": "QTCB PROLONGATION",
        "conceptId": "C107098",
        "decode": "QTcB Prolongation"
      },
      {
        "submissionValue": "QTCF PROLONGATION",
        "conceptId": "C107099",
        "decode": "QTcF Prolongation"
      },
      {
        "submissionValue": "QUALITY PROBLEM NOT OTHERWISE SPECIFIED",
        "conceptId": "C114161",
        "decode": "Quality Problem Not Otherwise Specified by ECG Finding"
      },
      {
        "submissionValue": "R ON T PHENOMENON",
        "conceptId": "C61395",
        "decode": "R On T Phenomenon by ECG Finding"
      },
      {
        "submissionValue": "R WAVE NOTCHED",
        "conceptId": "C90444",
        "decode": "R Wave Notched by ECG Finding"
      },
      {
        "submissionValue": "REPOLARIZATION ABNORMALITY SECONDARY TO VENTRICULAR HYPERTROPHY",
        "conceptId": "C102706",
        "decode": "Repolarization Abnormality Secondary To Ventricular Hypertrophy"
      },
      {
        "submissionValue": "REPOLARIZATION ABNORMALITY",
        "conceptId": "C102574",
        "decode": "Ventricular Repolarization Abnormality"
      },
      {
        "submissionValue": "RIGHT ATRIAL ABNORMALITY",
        "conceptId": "C71041",
        "decode": "P-pulmonale by ECG Finding"
      },
      {
        "submissionValue": "RIGHT BUNDLE BRANCH BLOCK",
        "conceptId": "C62270",
        "decode": "Right Bundle Branch Block by ECG Finding"
      },
      {
        "submissionValue": "RIGHT VENTRICULAR CONDUCTION DELAY",
        "conceptId": "C92235",
        "decode": "Right Ventricular Conduction Delay by ECG Finding"
      },
      {
        "submissionValue": "RIGHT VENTRICULAR HYPERTROPHY",
        "conceptId": "C71077",
        "decode": "Right Ventricular Hypertrophy by ECG Finding"
      },
      {
        "submissionValue": "RSR PRIME",
        "conceptId": "C92227",
        "decode": "RSR' by ECG Finding"
      },
      {
        "submissionValue": "SEPTAL MYOCARDIAL INFARCTION",
        "conceptId": "C35519",
        "decode": "Septal Myocardial Infarction by ECG Finding"
      },
      {
        "submissionValue": "SHORT PR INTERVAL",
        "conceptId": "C62246",
        "decode": "Short PR Interval by ECG Finding"
      },
      {
        "submissionValue": "SHORT QTC INTERVAL",
        "conceptId": "C102709",
        "decode": "Short QTc Interval"
      },
      {
        "submissionValue": "SHORT QTCB",
        "conceptId": "C112402",
        "decode": "QTcB Shortened"
      },
      {
        "submissionValue": "SHORT QTCF",
        "conceptId": "C112403",
        "decode": "QTcF Shortened"
      },
      {
        "submissionValue": "SHORT ST SEGMENT",
        "conceptId": "C116136",
        "decode": "Short ST Segment by ECG Finding"
      },
      {
        "submissionValue": "SINOATRIAL EXIT BLOCK",
        "conceptId": "C50553",
        "decode": "Exit Block by ECG Finding"
      },
      {
        "submissionValue": "SINUS ARREST/PAUSE",
        "conceptId": "C62242",
        "decode": "Sinus Arrest by ECG Finding"
      },
      {
        "submissionValue": "SINUS ARRHYTHMIA",
        "conceptId": "C62239",
        "decode": "Sinus Arrhythmia by ECG Finding"
      },
      {
        "submissionValue": "SINUS BRADYCARDIA",
        "conceptId": "C111097",
        "decode": "Sinus Bradycardia by ECG Finding"
      },
      {
        "submissionValue": "SINUS RHYTHM",
        "conceptId": "C100076",
        "decode": "Sinus Rhythm"
      },
      {
        "submissionValue": "SINUS SLOWING WITH AV BLOCK",
        "conceptId": "C120617",
        "decode": "Sinus Slowing With AV Block by ECG Finding"
      },
      {
        "submissionValue": "SINUS TACHYCARDIA",
        "conceptId": "C111104",
        "decode": "Sinus Tachycardia by ECG Finding"
      },
      {
        "submissionValue": "ST DEPRESSION",
        "conceptId": "C41330",
        "decode": "ST Segment Depression by ECG Finding"
      },
      {
        "submissionValue": "ST ELEVATION PERICARDITIS",
        "conceptId": "C71029",
        "decode": "ST Elevation Pericarditis by ECG Finding"
      },
      {
        "submissionValue": "ST ELEVATION",
        "conceptId": "C50540",
        "decode": "ST Segment Elevation by ECG Finding"
      },
      {
        "submissionValue": "SUPRAVENTRICULAR BIGEMINY",
        "conceptId": "C161046",
        "decode": "Supraventricular Bigeminy by ECG Finding"
      },
      {
        "submissionValue": "SUPRAVENTRICULAR COUPLET",
        "conceptId": "C119252",
        "decode": "Supraventricular Couplet by ECG Finding"
      },
      {
        "submissionValue": "SUPRAVENTRICULAR ESCAPE BEAT",
        "conceptId": "C135395",
        "decode": "Supraventricular Escape Beat by ECG Finding"
      },
      {
        "submissionValue": "SUPRAVENTRICULAR PREMATURE COMPLEX, ORIGIN UNKNOWN",
        "conceptId": "C142246",
        "decode": "Supraventricular Premature Complex With Unknown Origin by ECG Finding"
      },
      {
        "submissionValue": "SUPRAVENTRICULAR RUN",
        "conceptId": "C120618",
        "decode": "Supraventricular Run by ECG Finding"
      },
      {
        "submissionValue": "SUPRAVENTRICULAR TACHYCARDIA",
        "conceptId": "C111100",
        "decode": "Supraventricular Tachycardia by ECG Finding"
      },
      {
        "submissionValue": "SUPRAVENTRICULAR TRIGEMINY",
        "conceptId": "C161047",
        "decode": "Supraventricular Trigeminy by ECG Finding"
      },
      {
        "submissionValue": "SUSPECT LIMB ELECTRODES REVERSED, INTERPRETATION ASSUMES NO REVERSAL",
        "conceptId": "C114173",
        "decode": "Suspicion of Limb Electrodes Reversal But Interpretation Assumes No Reversal by ECG Finding"
      },
      {
        "submissionValue": "SUSPECT LIMB ELECTRODES REVERSED, INTERPRETATION ASSUMES REVERSAL",
        "conceptId": "C114174",
        "decode": "Suspicion of Limb Electrodes Reversal But Interpretation Assumes Reversal by ECG Finding"
      },
      {
        "submissionValue": "SUSTAINED ACCELERATED IDIOVENTRICULAR RHYTHM",
        "conceptId": "C202349",
        "decode": "Sustained Accelerated Idioventricular Rhythm by ECG Finding"
      },
      {
        "submissionValue": "SUSTAINED ATRIAL TACHYCARDIA",
        "conceptId": "C202347",
        "decode": "Sustained Atrial Tachycardia by ECG Finding"
      },
      {
        "submissionValue": "SUSTAINED SUPRAVENTRICULAR TACHYCARDIA",
        "conceptId": "C120619",
        "decode": "Sustained Supraventricular Tachycardia by ECG Finding"
      },
      {
        "submissionValue": "SUSTAINED VENTRICULAR TACHYCARDIA",
        "conceptId": "C71052",
        "decode": "Sustained Ventricular Tachycardia by ECG Finding"
      },
      {
        "submissionValue": "T WAVE ALTERNANS",
        "conceptId": "C102718",
        "decode": "T Wave Alternans by ECG Finding"
      },
      {
        "submissionValue": "T WAVE INVERSION",
        "conceptId": "C71085",
        "decode": "T Wave Inversion by ECG Finding"
      },
      {
        "submissionValue": "T WAVE PEAKED",
        "conceptId": "C71086",
        "decode": "T Wave Peaked by ECG Finding"
      },
      {
        "submissionValue": "T WAVES BIPHASIC",
        "conceptId": "C71087",
        "decode": "T Waves Biphasic by ECG Finding"
      },
      {
        "submissionValue": "T WAVES FLAT",
        "conceptId": "C71088",
        "decode": "T Waves Flat by ECG Finding"
      },
      {
        "submissionValue": "TACHYCARDIA",
        "conceptId": "C111121",
        "decode": "Tachycardia by ECG Finding"
      },
      {
        "submissionValue": "TORSADES DE POINTES",
        "conceptId": "C50779",
        "decode": "Torsades De Pointes by ECG Finding"
      },
      {
        "submissionValue": "U WAVE ABNORMALITY",
        "conceptId": "C106579",
        "decode": "U Wave Abnormality by ECG Finding"
      },
      {
        "submissionValue": "UNDETERMINED RHYTHM",
        "conceptId": "C116131",
        "decode": "Undetermined Rhythm by ECG Finding"
      },
      {
        "submissionValue": "UNDETERMINED SUPRAVENTRICULAR RHYTHM",
        "conceptId": "C120607",
        "decode": "Undetermined Supraventricular Rhythm by ECG Finding"
      },
      {
        "submissionValue": "VENTRICULAR BIGEMINY",
        "conceptId": "C71054",
        "decode": "Ventricular Bigeminy by ECG Finding"
      },
      {
        "submissionValue": "VENTRICULAR COUPLET",
        "conceptId": "C62259",
        "decode": "Ventricular Couplet by ECG Finding"
      },
      {
        "submissionValue": "VENTRICULAR ESCAPE BEAT",
        "conceptId": "C90483",
        "decode": "Ventricular Escape Beat by ECG Finding"
      },
      {
        "submissionValue": "VENTRICULAR FIBRILLATION",
        "conceptId": "C111102",
        "decode": "Ventricular Fibrillation by ECG Finding"
      },
      {
        "submissionValue": "VENTRICULAR FLUTTER",
        "conceptId": "C111115",
        "decode": "Ventricular Flutter by ECG Finding"
      },
      {
        "submissionValue": "VENTRICULAR PARASYSTOLE",
        "conceptId": "C102728",
        "decode": "Ventricular Parasystole by ECG Finding"
      },
      {
        "submissionValue": "VENTRICULAR QUADRIGEMINY",
        "conceptId": "C120620",
        "decode": "Ventricular Quadrigeminy by ECG Finding"
      },
      {
        "submissionValue": "VENTRICULAR RUN",
        "conceptId": "C120621",
        "decode": "Ventricular Run by ECG Finding"
      },
      {
        "submissionValue": "VENTRICULAR TACHYCARDIA",
        "conceptId": "C111103",
        "decode": "Ventricular Tachycardia by ECG Finding"
      },
      {
        "submissionValue": "VENTRICULAR TACHYCARDIA, MONOMORPHIC",
        "conceptId": "C62234",
        "decode": "Monomorphic Ventricular Tachycardia by ECG Finding"
      },
      {
        "submissionValue": "VENTRICULAR TACHYCARDIA, POLYMORPHIC",
        "conceptId": "C62236",
        "decode": "Polymorphic Ventricular Tachycardia by ECG Finding"
      },
      {
        "submissionValue": "VENTRICULAR TRIGEMINY",
        "conceptId": "C71055",
        "decode": "Ventricular Trigeminy by ECG Finding"
      },
      {
        "submissionValue": "VOLTAGE CRITERIA SUGGESTING LEFT VENTRICULAR HYPERTROPHY, WITHOUT SECONDARY ECG FINDINGS",
        "conceptId": "C130067",
        "decode": "Voltage Criteria Suggesting Left Ventricular Hypertrophy, Without Secondary ECG Findings"
      },
      {
        "submissionValue": "WANDERING ATRIAL PACEMAKER",
        "conceptId": "C62240",
        "decode": "Wandering Atrial Pacemaker by ECG Finding"
      },
      {
        "submissionValue": "WIDE QRS TACHYCARDIA",
        "conceptId": "C71090",
        "decode": "Wide QRS Tachycardia by ECG Finding"
      },
      {
        "submissionValue": "WOLFF-PARKINSON-WHITE SYNDROME",
        "conceptId": "C35132",
        "decode": "Wolff-Parkinson-White Syndrome"
      }
    ]
  },
  "C120523": {
    "conceptId": "C120523",
    "name": "Holter ECG Test Code",
    "extensible": "true",
    "package": "sdtmct-2026-03-27",
    "terms": [
      {
        "submissionValue": "AVCOND",
        "conceptId": "C111131",
        "decode": "Atrioventricular Conduction ECG Assessment"
      },
      {
        "submissionValue": "AXISVOLT",
        "conceptId": "C111132",
        "decode": "Axis and Voltage ECG Assessment"
      },
      {
        "submissionValue": "CHYPTENL",
        "conceptId": "C111155",
        "decode": "Chamber Hypertrophy or Enlargement ECG Assessment"
      },
      {
        "submissionValue": "EGCOMP",
        "conceptId": "C117761",
        "decode": "Comparison to a Prior ECG"
      },
      {
        "submissionValue": "INTP",
        "conceptId": "C41255",
        "decode": "Interpretation"
      },
      {
        "submissionValue": "IVTIACD",
        "conceptId": "C111238",
        "decode": "Intraventricular and Intraatrial Conduction ECG Assessment"
      },
      {
        "submissionValue": "MI",
        "conceptId": "C111280",
        "decode": "Myocardial Infarction ECG Assessment"
      },
      {
        "submissionValue": "PACEMAKR",
        "conceptId": "C111285",
        "decode": "Pacemaker ECG Assessment"
      },
      {
        "submissionValue": "RHYNOS",
        "conceptId": "C111307",
        "decode": "Rhythm Not Otherwise Specified ECG Assessment"
      },
      {
        "submissionValue": "SNRARRY",
        "conceptId": "C111312",
        "decode": "Sinus Node Rhythm and Arrhythmia ECG Assessment"
      },
      {
        "submissionValue": "SPRARRY",
        "conceptId": "C111320",
        "decode": "Supraventricular Arrhythmia ECG Assessment"
      },
      {
        "submissionValue": "SPRTARRY",
        "conceptId": "C111321",
        "decode": "Supraventricular Tachyarrhythmia ECG Assessment"
      },
      {
        "submissionValue": "STSTWUW",
        "conceptId": "C111363",
        "decode": "ST Segment, T wave, and U wave ECG Assessment"
      },
      {
        "submissionValue": "TECHQUAL",
        "conceptId": "C117807",
        "decode": "ECG Technical Quality"
      },
      {
        "submissionValue": "VTARRY",
        "conceptId": "C111330",
        "decode": "Ventricular Arrhythmia ECG Assessment"
      },
      {
        "submissionValue": "VTTARRY",
        "conceptId": "C111331",
        "decode": "Ventricular Tachyarrhythmia ECG Assessment"
      }
    ]
  },
  "C120524": {
    "conceptId": "C120524",
    "name": "Holter ECG Test Name",
    "extensible": "true",
    "package": "sdtmct-2026-03-27",
    "terms": [
      {
        "submissionValue": "Atrioventricular Conduction",
        "conceptId": "C111131",
        "decode": "Atrioventricular Conduction ECG Assessment"
      },
      {
        "submissionValue": "Axis and Voltage",
        "conceptId": "C111132",
        "decode": "Axis and Voltage ECG Assessment"
      },
      {
        "submissionValue": "Chamber Hypertrophy or Enlargement",
        "conceptId": "C111155",
        "decode": "Chamber Hypertrophy or Enlargement ECG Assessment"
      },
      {
        "submissionValue": "Comparison to a Prior ECG",
        "conceptId": "C117761",
        "decode": "Comparison to a Prior ECG"
      },
      {
        "submissionValue": "Interpretation",
        "conceptId": "C41255",
        "decode": "Interpretation"
      },
      {
        "submissionValue": "Intraventricular-Intraatrial Conduction",
        "conceptId": "C111238",
        "decode": "Intraventricular and Intraatrial Conduction ECG Assessment"
      },
      {
        "submissionValue": "Myocardial Infarction",
        "conceptId": "C111280",
        "decode": "Myocardial Infarction ECG Assessment"
      },
      {
        "submissionValue": "Pacemaker",
        "conceptId": "C111285",
        "decode": "Pacemaker ECG Assessment"
      },
      {
        "submissionValue": "Rhythm Not Otherwise Specified",
        "conceptId": "C111307",
        "decode": "Rhythm Not Otherwise Specified ECG Assessment"
      },
      {
        "submissionValue": "Sinus Node Rhythms and Arrhythmias",
        "conceptId": "C111312",
        "decode": "Sinus Node Rhythm and Arrhythmia ECG Assessment"
      },
      {
        "submissionValue": "ST Segment, T wave, and U wave",
        "conceptId": "C111363",
        "decode": "ST Segment, T wave, and U wave ECG Assessment"
      },
      {
        "submissionValue": "Supraventricular Arrhythmias",
        "conceptId": "C111320",
        "decode": "Supraventricular Arrhythmia ECG Assessment"
      },
      {
        "submissionValue": "Supraventricular Tachyarrhythmias",
        "conceptId": "C111321",
        "decode": "Supraventricular Tachyarrhythmia ECG Assessment"
      },
      {
        "submissionValue": "Technical Quality",
        "conceptId": "C117807",
        "decode": "ECG Technical Quality"
      },
      {
        "submissionValue": "Ventricular Arrhythmias",
        "conceptId": "C111330",
        "decode": "Ventricular Arrhythmia ECG Assessment"
      },
      {
        "submissionValue": "Ventricular Tachyarrhythmias",
        "conceptId": "C111331",
        "decode": "Ventricular Tachyarrhythmia ECG Assessment"
      }
    ]
  },
  "C124301": {
    "conceptId": "C124301",
    "name": "Medical History Event Date Type",
    "extensible": "true",
    "package": "sdtmct-2026-03-27",
    "terms": [
      {
        "submissionValue": "CURRENT DISEASE PRESENTATION",
        "conceptId": "C99554",
        "decode": "Disease Presentation"
      },
      {
        "submissionValue": "DIAGNOSIS",
        "conceptId": "C15220",
        "decode": "Diagnosis Assessment"
      },
      {
        "submissionValue": "DISEASE BECAME ADVANCED",
        "conceptId": "C221639",
        "decode": "Advanced Disease"
      },
      {
        "submissionValue": "DISEASE BECAME LOCALLY ADVANCED",
        "conceptId": "C221638",
        "decode": "Locally Advanced Disease"
      },
      {
        "submissionValue": "DISEASE BECAME METASTATIC",
        "conceptId": "C40557",
        "decode": "Metastatic Disease"
      },
      {
        "submissionValue": "DISEASE RELAPSE",
        "conceptId": "C38155",
        "decode": "Recurrent Disease"
      },
      {
        "submissionValue": "DISEASE TRANSFORMATION",
        "conceptId": "C123583",
        "decode": "Disease Transformation"
      },
      {
        "submissionValue": "EPISODE",
        "conceptId": "C75539",
        "decode": "Episode"
      },
      {
        "submissionValue": "EXACERBATION",
        "conceptId": "C124138",
        "decode": "Exacerbation"
      },
      {
        "submissionValue": "FLARE",
        "conceptId": "C113680",
        "decode": "Flare-up"
      },
      {
        "submissionValue": "INITIAL DIAGNOSIS",
        "conceptId": "C156813",
        "decode": "Initial Diagnosis"
      },
      {
        "submissionValue": "INITIAL DISEASE RELAPSE",
        "conceptId": "C123399",
        "decode": "First Relapse"
      },
      {
        "submissionValue": "MOST RECENT DIAGNOSIS",
        "conceptId": "C184685",
        "decode": "Most Recent Diagnosis"
      },
      {
        "submissionValue": "MOST RECENT DISEASE RELAPSE",
        "conceptId": "C204662",
        "decode": "Most Recent Disease Relapse"
      },
      {
        "submissionValue": "MOST RECENT EPISODE",
        "conceptId": "C191305",
        "decode": "Most Recent Episode"
      },
      {
        "submissionValue": "MOST RECENT EXACERBATION",
        "conceptId": "C214706",
        "decode": "Most Recent Exacerbation"
      },
      {
        "submissionValue": "PATHOLOGICAL DIAGNOSIS",
        "conceptId": "C178004",
        "decode": "Pathological Diagnosis"
      },
      {
        "submissionValue": "PROGRESSION",
        "conceptId": "C17747",
        "decode": "Disease Progression"
      },
      {
        "submissionValue": "RESTAGING",
        "conceptId": "C132008",
        "decode": "Restaging"
      },
      {
        "submissionValue": "STAGING",
        "conceptId": "C15608",
        "decode": "Staging"
      },
      {
        "submissionValue": "SYMPTOM ONSET",
        "conceptId": "C124353",
        "decode": "Symptom Onset"
      }
    ]
  },
  "C142179": {
    "conceptId": "C142179",
    "name": "Arm Null Reason",
    "extensible": "true",
    "package": "sdtmct-2026-03-27",
    "terms": [
      {
        "submissionValue": "ASSIGNED, NOT TREATED",
        "conceptId": "C142238",
        "decode": "Subject Assigned to Arm But Not Treated"
      },
      {
        "submissionValue": "NOT ASSIGNED",
        "conceptId": "C142239",
        "decode": "Subject Not Assigned to Arm"
      },
      {
        "submissionValue": "SCREEN FAILURE",
        "conceptId": "C49628",
        "decode": "Trial Screen Failure"
      },
      {
        "submissionValue": "SCREENING NOT COMPLETED",
        "conceptId": "C166074",
        "decode": "Screening Not Completed"
      },
      {
        "submissionValue": "UNPLANNED TREATMENT",
        "conceptId": "C142240",
        "decode": "Subject Received Unplanned Treatment"
      }
    ]
  },
  "C150811": {
    "conceptId": "C150811",
    "name": "Other Disposition Event Response",
    "extensible": "true",
    "package": "sdtmct-2026-03-27",
    "terms": [
      {
        "submissionValue": "SITE TRANSFER",
        "conceptId": "C186208",
        "decode": "Study Site Transfer"
      },
      {
        "submissionValue": "SUBJECT ENTERED ADDITIONAL RESEARCH STUDY",
        "conceptId": "C204692",
        "decode": "Subject Entered Additional Research Study"
      },
      {
        "submissionValue": "TREATMENT UNBLINDED",
        "conceptId": "C142742",
        "decode": "Unblinding"
      },
      {
        "submissionValue": "WITHDRAWAL OF CONSENT FROM PROTOCOL-SPECIFIED ACTIVITY",
        "conceptId": "C170610",
        "decode": "Withdrawal of Consent From Protocol-Specified Activity"
      }
    ]
  },
  "C160922": {
    "conceptId": "C160922",
    "name": "Laboratory Analytical Method Calculation Formula",
    "extensible": "true",
    "package": "sdtmct-2026-03-27",
    "terms": [
      {
        "submissionValue": "ASH FIBROSURE FORMULA",
        "conceptId": "C172486",
        "decode": "ASH Fibrosure Formula"
      },
      {
        "submissionValue": "CKD CHILDREN AND YOUNG ADULT CYSTATIN C BASED 2021 FORMULA",
        "conceptId": "C204630",
        "decode": "CKD U25 Cystatin C Based eGFR 2021 Formula"
      },
      {
        "submissionValue": "CKD-EPI CREATININE 2021 FORMULA",
        "conceptId": "C209577",
        "decode": "CKD-EPI Creatinine 2021 Formula"
      },
      {
        "submissionValue": "CKD-EPI CREATININE FORMULA",
        "conceptId": "C161338",
        "decode": "CKD-EPI Creatinine Formula"
      },
      {
        "submissionValue": "CKD-EPI CREATININE-CYSTATIN C 2021 FORMULA",
        "conceptId": "C204632",
        "decode": "CKD-EPI Creatinine-Cystatine C 2021 Formula"
      },
      {
        "submissionValue": "CKD-EPI CREATININE-CYSTATIN C FORMULA",
        "conceptId": "C161340",
        "decode": "CKD-EPI Creatinine-Cystatin C Formula"
      },
      {
        "submissionValue": "CKD-EPI CYSTATIN C FORMULA",
        "conceptId": "C161339",
        "decode": "CKD-EPI Cystatin C Formula"
      },
      {
        "submissionValue": "CKD-EPI FORMULA",
        "conceptId": "C161341",
        "decode": "CKD-EPI Formula"
      },
      {
        "submissionValue": "CKD-EPI JAPANESE MODIFICATION 2010 FORMULA",
        "conceptId": "C204631",
        "decode": "2010 Japanese Modification of 2009 CKD-EPI Formula"
      },
      {
        "submissionValue": "COCKCROFT-GAULT FORMULA",
        "conceptId": "C161342",
        "decode": "Cockcroft-Gault Formula"
      },
      {
        "submissionValue": "FIBROMETER FORMULA",
        "conceptId": "C172489",
        "decode": "Fibrometer Formula"
      },
      {
        "submissionValue": "FIBROSIS 4 FORMULA",
        "conceptId": "C170576",
        "decode": "Fibrosis 4 Formula"
      },
      {
        "submissionValue": "FIBROTEST FORMULA",
        "conceptId": "C172485",
        "decode": "Fibrotest Formula"
      },
      {
        "submissionValue": "FRIEDEWALD 1972 FORMULA",
        "conceptId": "C204629",
        "decode": "Friedewald 1972 Formula"
      },
      {
        "submissionValue": "GMI % FORMULA",
        "conceptId": "C174289",
        "decode": "Glucose Management Indicator Percentage Formula"
      },
      {
        "submissionValue": "GMI MMOL/MOL FORMULA",
        "conceptId": "C174290",
        "decode": "Glucose Management Indicator Mmol/mol Formula"
      },
      {
        "submissionValue": "HEPASCORE FORMULA",
        "conceptId": "C172488",
        "decode": "Hepascore Formula"
      },
      {
        "submissionValue": "IDMS-MDRD STUDY EQUATION WITH JSN-CKDI COEFFICIENT 0.741 IMAI 2007",
        "conceptId": "C181401",
        "decode": "IDMS-MDRD Study Equation With JSN-CKDI Coefficient 0.741 Imai et al. 2007"
      },
      {
        "submissionValue": "MDRD 4 VARIABLE FORMULA",
        "conceptId": "C161343",
        "decode": "MDRD 4 Variable Formula"
      },
      {
        "submissionValue": "MDRD 5 VARIABLE FORMULA",
        "conceptId": "C161344",
        "decode": "MDRD 5 Variable Formula"
      },
      {
        "submissionValue": "MDRD 6 VARIABLE FORMULA",
        "conceptId": "C161345",
        "decode": "MDRD 6 Variable Formula"
      },
      {
        "submissionValue": "MDRD ENZYMATIC FORMULA",
        "conceptId": "C161346",
        "decode": "MDRD Enzymatic Formula"
      },
      {
        "submissionValue": "MDRD ENZYMATIC JAPANESE FORMULA",
        "conceptId": "C161347",
        "decode": "MDRD Enzymatic Japanese Formula"
      },
      {
        "submissionValue": "MDRD FORMULA",
        "conceptId": "C176295",
        "decode": "Modification of Diet in Renal Disease Formula"
      },
      {
        "submissionValue": "NASH FIBROSURE FORMULA",
        "conceptId": "C172487",
        "decode": "NASH Fibrosure Formula"
      },
      {
        "submissionValue": "NEPHROCHECK AKI RISK 2013 FORMULA",
        "conceptId": "C202375",
        "decode": "NephroCheck AKI Risk 2013 Formula"
      },
      {
        "submissionValue": "SCHWARTZ METHOD FOR CHILDREN FORMULA",
        "conceptId": "C161348",
        "decode": "Schwartz Method For Children Formula"
      }
    ]
  },
  "C170443": {
    "conceptId": "C170443",
    "name": "Subcategory for Disposition Event",
    "extensible": "true",
    "package": "sdtmct-2026-03-27",
    "terms": [
      {
        "submissionValue": "STUDY PARTICIPATION",
        "conceptId": "C170569",
        "decode": "Study Participation"
      },
      {
        "submissionValue": "STUDY TREATMENT",
        "conceptId": "C170570",
        "decode": "Study Treatment Phase Participation"
      }
    ]
  },
  "C177908": {
    "conceptId": "C177908",
    "name": "Collected Summarized Value Type Response",
    "extensible": "true",
    "package": "sdtmct-2026-03-27",
    "terms": [
      {
        "submissionValue": "COEFFICIENT OF VARIATION",
        "conceptId": "C63904",
        "decode": "Coefficient of Variance"
      },
      {
        "submissionValue": "MAXIMUM",
        "conceptId": "C25564",
        "decode": "Maximum"
      },
      {
        "submissionValue": "MEAN",
        "conceptId": "C181249",
        "decode": "Mean Based on Unspecified Calculation"
      },
      {
        "submissionValue": "MEAN, ARITHMETIC",
        "conceptId": "C53319",
        "decode": "Arithmetic Mean"
      },
      {
        "submissionValue": "MEAN, GEOMETRIC",
        "conceptId": "C94906",
        "decode": "Geometric Mean"
      },
      {
        "submissionValue": "MEDIAN",
        "conceptId": "C28007",
        "decode": "Median"
      },
      {
        "submissionValue": "MINIMUM",
        "conceptId": "C25570",
        "decode": "Minimum"
      },
      {
        "submissionValue": "NADIR",
        "conceptId": "C43517",
        "decode": "Lowest"
      },
      {
        "submissionValue": "STANDARD DEVIATION",
        "conceptId": "C53322",
        "decode": "Standard Deviation"
      },
      {
        "submissionValue": "VARIANCE",
        "conceptId": "C48918",
        "decode": "Variance"
      }
    ]
  },
  "C177910": {
    "conceptId": "C177910",
    "name": "Result Scale Response",
    "extensible": "true",
    "package": "sdtmct-2026-03-27",
    "terms": [
      {
        "submissionValue": "NARRATIVE",
        "conceptId": "C80446",
        "decode": "Narrative"
      },
      {
        "submissionValue": "NOMINAL",
        "conceptId": "C47798",
        "decode": "Nominal Scale"
      },
      {
        "submissionValue": "ORDINAL",
        "conceptId": "C47797",
        "decode": "Ordinal Scale"
      },
      {
        "submissionValue": "QUANTITATIVE",
        "conceptId": "C70766",
        "decode": "Quantitative Concept"
      },
      {
        "submissionValue": "SEMI-QUANTITATIVE",
        "conceptId": "C178986",
        "decode": "Semi-Quantitative Concept"
      }
    ]
  },
  "C179588": {
    "conceptId": "C179588",
    "name": "Result Type Response",
    "extensible": "true",
    "package": "sdtmct-2026-03-27",
    "terms": [
      {
        "submissionValue": "APPEARANCE",
        "conceptId": "C25377",
        "decode": "Appearance"
      },
      {
        "submissionValue": "ARBITRARY CONCENTRATION",
        "conceptId": "C179790",
        "decode": "Arbitrary Concentration"
      },
      {
        "submissionValue": "AREA",
        "conceptId": "C25244",
        "decode": "Area"
      },
      {
        "submissionValue": "AREIC VOLUME RATE",
        "conceptId": "C179791",
        "decode": "Areic Volume Rate"
      },
      {
        "submissionValue": "CATALYTIC CONCENTRATION",
        "conceptId": "C179792",
        "decode": "Catalytic Concentration"
      },
      {
        "submissionValue": "CATALYTIC CONTENT",
        "conceptId": "C179793",
        "decode": "Catalytic Content"
      },
      {
        "submissionValue": "CATALYTIC DECIMAL FRACTION",
        "conceptId": "C189628",
        "decode": "Catalytic Decimal Fraction"
      },
      {
        "submissionValue": "CATALYTIC FRACTION",
        "conceptId": "C179794",
        "decode": "Catalytic Fraction"
      },
      {
        "submissionValue": "CATALYTIC SUBSTANCE",
        "conceptId": "C191346",
        "decode": "Catalytic Substance Activity"
      },
      {
        "submissionValue": "ENTITIC MASS",
        "conceptId": "C179795",
        "decode": "Entitic Mass"
      },
      {
        "submissionValue": "ENTITIC SUBSTANCE",
        "conceptId": "C191349",
        "decode": "Entitic Substance"
      },
      {
        "submissionValue": "ENTITIC VOLUME",
        "conceptId": "C179796",
        "decode": "Entitic Volume"
      },
      {
        "submissionValue": "FLUORESCENCE INTENSITY",
        "conceptId": "C184706",
        "decode": "Fluorescence Intensity"
      },
      {
        "submissionValue": "IMPRESSION",
        "conceptId": "C131082",
        "decode": "Impression"
      },
      {
        "submissionValue": "INDEX",
        "conceptId": "C67368",
        "decode": "Index Value"
      },
      {
        "submissionValue": "LOG ARBITRARY CONCENTRATION",
        "conceptId": "C201468",
        "decode": "Log Arbitrary Concentration"
      },
      {
        "submissionValue": "LOG NUMBER CONCENTRATION",
        "conceptId": "C201467",
        "decode": "Log Number Concentration"
      },
      {
        "submissionValue": "LOG SUBSTANCE CONCENTRATION",
        "conceptId": "C179797",
        "decode": "Log Substance Concentration"
      },
      {
        "submissionValue": "MASS CONCENTRATION",
        "conceptId": "C179798",
        "decode": "Mass Concentration"
      },
      {
        "submissionValue": "MASS CONTENT",
        "conceptId": "C191347",
        "decode": "Mass Content"
      },
      {
        "submissionValue": "MASS DECIMAL FRACTION",
        "conceptId": "C189627",
        "decode": "Mass Decimal Fraction"
      },
      {
        "submissionValue": "MASS FRACTION",
        "conceptId": "C67470",
        "decode": "Mass Fraction"
      },
      {
        "submissionValue": "MASS RATE",
        "conceptId": "C179799",
        "decode": "Mass Rate"
      },
      {
        "submissionValue": "MASS RATIO",
        "conceptId": "C179800",
        "decode": "Mass Ratio"
      },
      {
        "submissionValue": "MASS",
        "conceptId": "C43246",
        "decode": "Mass"
      },
      {
        "submissionValue": "MORPHOLOGY",
        "conceptId": "C17943",
        "decode": "Morphology"
      },
      {
        "submissionValue": "MULTIPLE OF THE MEDIAN",
        "conceptId": "C179801",
        "decode": "Multiple of the Median"
      },
      {
        "submissionValue": "NUMBER AREIC",
        "conceptId": "C179802",
        "decode": "Number Areic"
      },
      {
        "submissionValue": "NUMBER CONCENTRATION",
        "conceptId": "C179803",
        "decode": "Number Concentration"
      },
      {
        "submissionValue": "NUMBER FRACTION",
        "conceptId": "C179804",
        "decode": "Number Fraction"
      },
      {
        "submissionValue": "NUMBER",
        "conceptId": "C25463",
        "decode": "Count"
      },
      {
        "submissionValue": "ODDS RATIO",
        "conceptId": "C16932",
        "decode": "Odds Ratio"
      },
      {
        "submissionValue": "OSMOLARITY",
        "conceptId": "C179805",
        "decode": "Osmolarity"
      },
      {
        "submissionValue": "PARTIAL PRESSURE",
        "conceptId": "C75755",
        "decode": "Partial Pressure"
      },
      {
        "submissionValue": "PERCENT DIFFERENCE",
        "conceptId": "C179806",
        "decode": "Percent Difference"
      },
      {
        "submissionValue": "PERCENTILE",
        "conceptId": "C48919",
        "decode": "Percentile"
      },
      {
        "submissionValue": "PRESENCE OR IDENTITY",
        "conceptId": "C179807",
        "decode": "Presence and Identity"
      },
      {
        "submissionValue": "PRESENCE OR THRESHOLD",
        "conceptId": "C179808",
        "decode": "Presence and Threshold"
      },
      {
        "submissionValue": "QUINTILE",
        "conceptId": "C189631",
        "decode": "Quintile"
      },
      {
        "submissionValue": "RATIO",
        "conceptId": "C179809",
        "decode": "Ratio Result Type"
      },
      {
        "submissionValue": "RELATIVE ARBITRARY CONCENTRATION",
        "conceptId": "C191348",
        "decode": "Relative Arbitrary Concentration"
      },
      {
        "submissionValue": "RELATIVE CATALYTIC CONCENTRATION",
        "conceptId": "C179810",
        "decode": "Relative Catalytic Concentration"
      },
      {
        "submissionValue": "RELATIVE DENSITY",
        "conceptId": "C179811",
        "decode": "Relative Density"
      },
      {
        "submissionValue": "RELATIVE MASS CONCENTRATION",
        "conceptId": "C179812",
        "decode": "Relative Mass Concentration"
      },
      {
        "submissionValue": "RELATIVE TIME",
        "conceptId": "C179813",
        "decode": "Relative Time"
      },
      {
        "submissionValue": "SATURATION FRACTION",
        "conceptId": "C189630",
        "decode": "Saturation Fraction"
      },
      {
        "submissionValue": "SCORE",
        "conceptId": "C25338",
        "decode": "Score"
      },
      {
        "submissionValue": "SUBSTANCE CONCENTRATION",
        "conceptId": "C179814",
        "decode": "Molar Concentration"
      },
      {
        "submissionValue": "SUBSTANCE FRACTION",
        "conceptId": "C179815",
        "decode": "Molar Fraction"
      },
      {
        "submissionValue": "SUBSTANCE RATE",
        "conceptId": "C179816",
        "decode": "Molar Rate"
      },
      {
        "submissionValue": "SUBSTANCE RATIO",
        "conceptId": "C81268",
        "decode": "Molar Ratio"
      },
      {
        "submissionValue": "THRESHOLD NUMBER",
        "conceptId": "C201469",
        "decode": "Threshold Number"
      },
      {
        "submissionValue": "TIME RATIO",
        "conceptId": "C179712",
        "decode": "Time Ratio"
      },
      {
        "submissionValue": "TIME",
        "conceptId": "C25330",
        "decode": "Duration"
      },
      {
        "submissionValue": "TITER",
        "conceptId": "C67454",
        "decode": "Titer"
      },
      {
        "submissionValue": "TYPE",
        "conceptId": "C25284",
        "decode": "Type"
      },
      {
        "submissionValue": "VELOCITY",
        "conceptId": "C179817",
        "decode": "Velocity"
      },
      {
        "submissionValue": "VISCOSITY",
        "conceptId": "C75912",
        "decode": "Viscosity"
      },
      {
        "submissionValue": "VOLUME DECIMAL FRACTION",
        "conceptId": "C189629",
        "decode": "Volume Decimal Fraction"
      },
      {
        "submissionValue": "VOLUME FRACTION",
        "conceptId": "C67469",
        "decode": "Volume Fraction"
      },
      {
        "submissionValue": "VOLUME RATE",
        "conceptId": "C75761",
        "decode": "Volume Rate"
      },
      {
        "submissionValue": "VOLUME",
        "conceptId": "C25335",
        "decode": "Volume"
      },
      {
        "submissionValue": "Z SCORE",
        "conceptId": "C68741",
        "decode": "Z-Score"
      }
    ]
  },
  "C179589": {
    "conceptId": "C179589",
    "name": "Test Method Sensitivity",
    "extensible": "true",
    "package": "sdtmct-2026-03-27",
    "terms": [
      {
        "submissionValue": "HIGH SENSITIVITY",
        "conceptId": "C179820",
        "decode": "High Sensitivity Method"
      },
      {
        "submissionValue": "LOW SENSITIVITY",
        "conceptId": "C179821",
        "decode": "Low Sensitivity Method"
      },
      {
        "submissionValue": "ULTRA-HIGH SENSITIVITY",
        "conceptId": "C179822",
        "decode": "Ultra-High Sensitivity Method"
      }
    ]
  },
  "C181170": {
    "conceptId": "C181170",
    "name": "Test Operational Objective",
    "extensible": "false",
    "package": "sdtmct-2026-03-27",
    "terms": [
      {
        "submissionValue": "CONFIRM",
        "conceptId": "C181549",
        "decode": "Confirmatory Test"
      },
      {
        "submissionValue": "OVERALL SUBJECT STATUS",
        "conceptId": "C199991",
        "decode": "Overall Subject Status"
      },
      {
        "submissionValue": "QUANTIFY",
        "conceptId": "C181550",
        "decode": "Quantification Test"
      },
      {
        "submissionValue": "SCREEN",
        "conceptId": "C181548",
        "decode": "Screening Test"
      }
    ]
  },
  "C181175": {
    "conceptId": "C181175",
    "name": "Test Condition Response",
    "extensible": "true",
    "package": "sdtmct-2026-03-27",
    "terms": [
      {
        "submissionValue": "1 DAY COLD INCUBATION",
        "conceptId": "C199986",
        "decode": "One Day Cold Incubation"
      },
      {
        "submissionValue": "SATURATED CONDITION WITH BINDING AGENT",
        "conceptId": "C181540",
        "decode": "Saturated Condition With Binding Agent"
      },
      {
        "submissionValue": "WITH APTEM REAGENT",
        "conceptId": "C214753",
        "decode": "With APTEM Reagent"
      },
      {
        "submissionValue": "WITH EXTEM REAGENT",
        "conceptId": "C214752",
        "decode": "With EXTEM Reagent"
      },
      {
        "submissionValue": "WITH FIBTEM REAGENT",
        "conceptId": "C214755",
        "decode": "With FIBTEM Reagent"
      },
      {
        "submissionValue": "WITH HEPTEM REAGENT",
        "conceptId": "C214754",
        "decode": "With HEPTEM Reagent"
      },
      {
        "submissionValue": "WITH INDUCING AGENT",
        "conceptId": "C199987",
        "decode": "With Inducing Agent"
      },
      {
        "submissionValue": "WITH INTEM REAGENT",
        "conceptId": "C214751",
        "decode": "With INTEM Reagent"
      },
      {
        "submissionValue": "WITH STIMULATING AGENT",
        "conceptId": "C181541",
        "decode": "With Stimulating Agent"
      },
      {
        "submissionValue": "WITHOUT BINDING AGENT",
        "conceptId": "C181543",
        "decode": "Without Binding Agent"
      },
      {
        "submissionValue": "WITHOUT STIMULATING AGENT",
        "conceptId": "C181542",
        "decode": "Without Stimulating Agent"
      }
    ]
  },
  "C65047": {
    "conceptId": "C65047",
    "name": "Laboratory Test Code",
    "extensible": "true",
    "package": "sdtmct-2026-03-27",
    "terms": [
      {
        "submissionValue": "A1AGLP",
        "conceptId": "C100429",
        "decode": "Alpha-1 Acid Glycoprotein Measurement"
      },
      {
        "submissionValue": "A1ANTRPF",
        "conceptId": "C181404",
        "decode": "Functional Alpha-1 Antitrypsin Measurement"
      },
      {
        "submissionValue": "A1ANTRYP",
        "conceptId": "C80167",
        "decode": "Alpha-1 Antitrypsin Measurement"
      },
      {
        "submissionValue": "A1MCGEXR",
        "conceptId": "C186022",
        "decode": "Alpha-1 Microglobulin Excretion Rate Measurement"
      },
      {
        "submissionValue": "A1MCREAT",
        "conceptId": "C100462",
        "decode": "Alpha-1 Microglobulin to Creatinine Ratio Measurement"
      },
      {
        "submissionValue": "A1MICG",
        "conceptId": "C100461",
        "decode": "Alpha-1 Microglobulin Measurement"
      },
      {
        "submissionValue": "A2MACG",
        "conceptId": "C80168",
        "decode": "Alpha-2 Macroglobulin Measurement"
      },
      {
        "submissionValue": "A73OXC",
        "conceptId": "C172524",
        "decode": "7-alpha-Hydroxy-4-cholesten-3-one Measurement"
      },
      {
        "submissionValue": "AAMAPAC",
        "conceptId": "C154761",
        "decode": "Alpha-Aminoadipic Acid Measurement"
      },
      {
        "submissionValue": "AAMBTAC",
        "conceptId": "C154759",
        "decode": "Alpha-Aminobutyric Acid Measurement"
      },
      {
        "submissionValue": "AAP",
        "conceptId": "C100430",
        "decode": "Alanine Aminopeptidase Measurement"
      },
      {
        "submissionValue": "AARGS",
        "conceptId": "C221574",
        "decode": "Aggrecan Alanine-Arginine-Glycine-Serine Neoepitope Measurement"
      },
      {
        "submissionValue": "AATZPL",
        "conceptId": "C189527",
        "decode": "Alpha-1 Antitrypsin Z-Polymer Measurement"
      },
      {
        "submissionValue": "AB42AB40",
        "conceptId": "C199923",
        "decode": "Amyloid Beta 1-42 to Amyloid Beta 1-40 Ratio Measurement"
      },
      {
        "submissionValue": "AB71A",
        "conceptId": "C225593",
        "decode": "Activation B7-1 Antigen Measurement"
      },
      {
        "submissionValue": "ABFBCA",
        "conceptId": "C184526",
        "decode": "AB-FUBINACA Measurement"
      },
      {
        "submissionValue": "ABNCE",
        "conceptId": "C111124",
        "decode": "Abnormal Cell Count"
      },
      {
        "submissionValue": "ABNCECE",
        "conceptId": "C150835",
        "decode": "Abnormal Cells to Total Cells Ratio Measurement"
      },
      {
        "submissionValue": "ABNCELE",
        "conceptId": "C150834",
        "decode": "Abnormal Cells to Leukocytes Ratio Measurement"
      },
      {
        "submissionValue": "ABO",
        "conceptId": "C125939",
        "decode": "ABO Blood Group Determination"
      },
      {
        "submissionValue": "ABOA1",
        "conceptId": "C135397",
        "decode": "ABO A1 Subtype Determination"
      },
      {
        "submissionValue": "ABP4",
        "conceptId": "C204641",
        "decode": "4-Aminobiphenyl Measurement"
      },
      {
        "submissionValue": "ABPNCA",
        "conceptId": "C184527",
        "decode": "AB-PINACA Measurement"
      },
      {
        "submissionValue": "ACANT",
        "conceptId": "C74699",
        "decode": "Acanthocyte Count"
      },
      {
        "submissionValue": "ACANTRBC",
        "conceptId": "C74633",
        "decode": "Acanthocyte to Erythrocyte Ratio Measurement"
      },
      {
        "submissionValue": "ACC",
        "conceptId": "C221549",
        "decode": "Acetyl-CoA Carboxylase Measurement"
      },
      {
        "submissionValue": "ACCP",
        "conceptId": "C221550",
        "decode": "Phosphorylated Acetyl-CoA Carboxylase Measurement"
      },
      {
        "submissionValue": "ACCPACC",
        "conceptId": "C221551",
        "decode": "Phosphorylated Acetyl-CoA Carboxylase to Acetyl-CoA Carboxylase Ratio Measurement"
      },
      {
        "submissionValue": "ACE",
        "conceptId": "C80169",
        "decode": "Angiotensin Converting Enzyme Measurement"
      },
      {
        "submissionValue": "ACETAMIN",
        "conceptId": "C135398",
        "decode": "Acetaminophen Measurement"
      },
      {
        "submissionValue": "ACETOAC",
        "conceptId": "C92247",
        "decode": "Acetoacetic Acid Measurement"
      },
      {
        "submissionValue": "ACETONE",
        "conceptId": "C147288",
        "decode": "Acetone Measurement"
      },
      {
        "submissionValue": "ACH",
        "conceptId": "C74838",
        "decode": "Acetylcholine Measurement"
      },
      {
        "submissionValue": "ACHE",
        "conceptId": "C96560",
        "decode": "Acetylcholinesterase Measurement"
      },
      {
        "submissionValue": "ACPHOS",
        "conceptId": "C80163",
        "decode": "Acid Phosphatase Measurement"
      },
      {
        "submissionValue": "ACRNCRNF",
        "conceptId": "C147289",
        "decode": "Acylcarnitine to Free Carnitine Ratio Measurement"
      },
      {
        "submissionValue": "ACROLEIN",
        "conceptId": "C204643",
        "decode": "Acrolein Measurement"
      },
      {
        "submissionValue": "ACRYNTRL",
        "conceptId": "C204644",
        "decode": "Acrylonitrile Measurement"
      },
      {
        "submissionValue": "ACSPGM",
        "conceptId": "C189522",
        "decode": "Sphingomyelin Phosphodiesterase Measurement"
      },
      {
        "submissionValue": "ACT",
        "conceptId": "C103348",
        "decode": "Activated Coagulation Time"
      },
      {
        "submissionValue": "ACTACEXR",
        "conceptId": "C189521",
        "decode": "Acetoacetic Acid Excretion Rate Measurement"
      },
      {
        "submissionValue": "ACTALD",
        "conceptId": "C204642",
        "decode": "Acetaldehyde Measurement"
      },
      {
        "submissionValue": "ACTB",
        "conceptId": "C184510",
        "decode": "Beta-Actin Measurement"
      },
      {
        "submissionValue": "ACTH",
        "conceptId": "C74780",
        "decode": "Adrenocorticotropic Hormone Measurement"
      },
      {
        "submissionValue": "ACTVNA",
        "conceptId": "C202385",
        "decode": "Activin A Measurement"
      },
      {
        "submissionValue": "ACTVNAB",
        "conceptId": "C202386",
        "decode": "Activin AB Measurement"
      },
      {
        "submissionValue": "ACTVNB",
        "conceptId": "C202387",
        "decode": "Activin B Measurement"
      },
      {
        "submissionValue": "ACYCRNTN",
        "conceptId": "C156535",
        "decode": "Acylcarnitine Measurement"
      },
      {
        "submissionValue": "ACYGLYCN",
        "conceptId": "C156534",
        "decode": "Acylglycine Measurement"
      },
      {
        "submissionValue": "ACYLCAOX",
        "conceptId": "C92286",
        "decode": "Acyl Coenzyme A Oxidase Measurement"
      },
      {
        "submissionValue": "ADAM8",
        "conceptId": "C147290",
        "decode": "ADAM Metallopeptidase Domain 8 Measurement"
      },
      {
        "submissionValue": "ADAMTS13",
        "conceptId": "C187684",
        "decode": "von Willebrand Coagulation Factor Cleaving Protease Measurement"
      },
      {
        "submissionValue": "ADBPNCA",
        "conceptId": "C184529",
        "decode": "ADB-PINACA Measurement"
      },
      {
        "submissionValue": "ADH",
        "conceptId": "C74847",
        "decode": "Antidiuretic Hormone Measurement"
      },
      {
        "submissionValue": "ADM",
        "conceptId": "C199910",
        "decode": "Adrenomedullin Measurement"
      },
      {
        "submissionValue": "ADMA",
        "conceptId": "C158233",
        "decode": "Asymmetric Dimethylarginine Measurement"
      },
      {
        "submissionValue": "ADMTS13A",
        "conceptId": "C187830",
        "decode": "von Willebrand Coagulation Factor Cleaving Protease Activity Measurement"
      },
      {
        "submissionValue": "ADP",
        "conceptId": "C102257",
        "decode": "Adenosine Diphosphate Measurement"
      },
      {
        "submissionValue": "ADPNCTN",
        "conceptId": "C74839",
        "decode": "Adiponectin Measurement"
      },
      {
        "submissionValue": "ADPNHMW",
        "conceptId": "C132363",
        "decode": "High Molecular Weight Adiponectin Measurement"
      },
      {
        "submissionValue": "AFACTXAA",
        "conceptId": "C98706",
        "decode": "Anti-Factor Xa Activity Measurement"
      },
      {
        "submissionValue": "AFP",
        "conceptId": "C74732",
        "decode": "Alpha-fetoprotein Measurement"
      },
      {
        "submissionValue": "AFPADJBW",
        "conceptId": "C147291",
        "decode": "Alpha Fetoprotein Adjusted for Body Weight Measurement"
      },
      {
        "submissionValue": "AFPL1",
        "conceptId": "C96562",
        "decode": "Alpha Fetoprotein L1 Measurement"
      },
      {
        "submissionValue": "AFPL2",
        "conceptId": "C96563",
        "decode": "Alpha Fetoprotein L2 Measurement"
      },
      {
        "submissionValue": "AFPL3",
        "conceptId": "C96564",
        "decode": "Alpha Fetoprotein L3 Measurement"
      },
      {
        "submissionValue": "AFPL3AFP",
        "conceptId": "C96565",
        "decode": "Alpha Fetoprotein L3 to Total Alpha Fetoprotein Ratio Measurement"
      },
      {
        "submissionValue": "AG1_5",
        "conceptId": "C124334",
        "decode": "1,5-Anhydroglucitol Measurement"
      },
      {
        "submissionValue": "AHBDH",
        "conceptId": "C111126",
        "decode": "Alpha Hydroxybutyrate Dehydrogenase Measurement"
      },
      {
        "submissionValue": "AHTRZLM",
        "conceptId": "C181418",
        "decode": "Alpha-Hydroxytriazolam Measurement"
      },
      {
        "submissionValue": "AKIRSC",
        "conceptId": "C202384",
        "decode": "Acute Kidney Injury Risk Score"
      },
      {
        "submissionValue": "ALA",
        "conceptId": "C122091",
        "decode": "Alanine Measurement"
      },
      {
        "submissionValue": "ALA1ALB",
        "conceptId": "C147292",
        "decode": "Apolipoprotein A1 to Apolipoprotein B Ratio Measurement"
      },
      {
        "submissionValue": "ALAALB",
        "conceptId": "C158222",
        "decode": "Apolipoprotein A to Apolipoprotein B Ratio Measurement"
      },
      {
        "submissionValue": "ALB",
        "conceptId": "C64431",
        "decode": "Albumin Measurement"
      },
      {
        "submissionValue": "ALBC",
        "conceptId": "C147293",
        "decode": "Albumin Clearance"
      },
      {
        "submissionValue": "ALBCREAT",
        "conceptId": "C74761",
        "decode": "Albumin to Creatinine Ratio Measurement"
      },
      {
        "submissionValue": "ALBEXR",
        "conceptId": "C150814",
        "decode": "Albumin Excretion Rate"
      },
      {
        "submissionValue": "ALBGALB",
        "conceptId": "C158228",
        "decode": "Glycated Albumin to Albumin Ratio Measurement"
      },
      {
        "submissionValue": "ALBGLOB",
        "conceptId": "C74894",
        "decode": "Albumin to Globulin Ratio Measurement"
      },
      {
        "submissionValue": "ALBGLYCA",
        "conceptId": "C122092",
        "decode": "Glycated Albumin Measurement"
      },
      {
        "submissionValue": "ALBIDX",
        "conceptId": "C154734",
        "decode": "Albumin Index"
      },
      {
        "submissionValue": "ALBPROT",
        "conceptId": "C103453",
        "decode": "Albumin to Total Protein Ratio Measurement"
      },
      {
        "submissionValue": "ALDEPX",
        "conceptId": "C154743",
        "decode": "Aldrin Epoxidase Measurement"
      },
      {
        "submissionValue": "ALDOLASE",
        "conceptId": "C74731",
        "decode": "Aldolase Measurement"
      },
      {
        "submissionValue": "ALDSTEXR",
        "conceptId": "C202382",
        "decode": "Aldosterone Excretion Rate"
      },
      {
        "submissionValue": "ALDSTRN",
        "conceptId": "C74841",
        "decode": "Aldosterone Measurement"
      },
      {
        "submissionValue": "ALFNTNL",
        "conceptId": "C184566",
        "decode": "Alfentanil Measurement"
      },
      {
        "submissionValue": "ALLOILE",
        "conceptId": "C154762",
        "decode": "Alloisoleucine Measurement"
      },
      {
        "submissionValue": "ALOX5",
        "conceptId": "C184519",
        "decode": "Arachidonate 5-Lipoxygenase Measurement"
      },
      {
        "submissionValue": "ALP",
        "conceptId": "C64432",
        "decode": "Alkaline Phosphatase Measurement"
      },
      {
        "submissionValue": "ALPBALP",
        "conceptId": "C147294",
        "decode": "Bone Alkaline Phosphatase to Total Alkaline Phosphatase Ratio Measurement"
      },
      {
        "submissionValue": "ALPBIALP",
        "conceptId": "C221548",
        "decode": "Biliary Alkaline Phosphatase to Alkaline Phosphatase Ratio Measurement"
      },
      {
        "submissionValue": "ALPBS",
        "conceptId": "C92287",
        "decode": "Bone Specific Alkaline Phosphatase Measurement"
      },
      {
        "submissionValue": "ALPCREAT",
        "conceptId": "C79438",
        "decode": "Alkaline Phosphatase to Creatinine Ratio Measurement"
      },
      {
        "submissionValue": "ALPEXR",
        "conceptId": "C165942",
        "decode": "Alkaline Phosphatase Excretion Rate"
      },
      {
        "submissionValue": "ALPIALP",
        "conceptId": "C147295",
        "decode": "Intestinal Alkaline Phosphatase to Total Alkaline Phosphatase Ratio Measurement"
      },
      {
        "submissionValue": "ALPIS",
        "conceptId": "C119266",
        "decode": "Intestinal Specific Alkaline Phosphatase Measurement"
      },
      {
        "submissionValue": "ALPISOE",
        "conceptId": "C139091",
        "decode": "Alkaline Phosphatase Isoenzyme Measurement"
      },
      {
        "submissionValue": "ALPLALP",
        "conceptId": "C147296",
        "decode": "Liver Alkaline Phosphatase to Total Alkaline Phosphatase Ratio Measurement"
      },
      {
        "submissionValue": "ALPLBALP",
        "conceptId": "C189497",
        "decode": "Liver and Bone Specific Alkaline Phosphatase Isoform to Alkaline Phosphatase Ratio Measurement"
      },
      {
        "submissionValue": "ALPLS",
        "conceptId": "C119267",
        "decode": "Liver Specific Alkaline Phosphatase Measurement"
      },
      {
        "submissionValue": "ALPMALP",
        "conceptId": "C221547",
        "decode": "Macrohepatic Alkaline Phosphatase to Alkaline Phosphatase Ratio Measurement"
      },
      {
        "submissionValue": "ALPPALP",
        "conceptId": "C184508",
        "decode": "Placental Alkaline Phosphatase to Total Alkaline Phosphatase Measurement"
      },
      {
        "submissionValue": "ALPPS",
        "conceptId": "C184509",
        "decode": "Placental Specific Alkaline Phosphatase Measurement"
      },
      {
        "submissionValue": "ALPRZLM",
        "conceptId": "C75370",
        "decode": "Alprazolam Measurement"
      },
      {
        "submissionValue": "ALS",
        "conceptId": "C163419",
        "decode": "Acid Labile Subunit Measurement"
      },
      {
        "submissionValue": "ALT",
        "conceptId": "C64433",
        "decode": "Alanine Aminotransferase Measurement"
      },
      {
        "submissionValue": "ALTAST",
        "conceptId": "C106498",
        "decode": "Alanine Aminotransferase to Aspartate Aminotransferase Ratio Measurement"
      },
      {
        "submissionValue": "ALTCPHRL",
        "conceptId": "C103349",
        "decode": "Alpha Tocopherol Measurement"
      },
      {
        "submissionValue": "ALUMINUM",
        "conceptId": "C111127",
        "decode": "Aluminum Measurement"
      },
      {
        "submissionValue": "AM2201",
        "conceptId": "C184539",
        "decode": "AM-2201 Measurement"
      },
      {
        "submissionValue": "AM694N5H",
        "conceptId": "C184538",
        "decode": "AM694 N-5-hydroxypentyl Measurement"
      },
      {
        "submissionValue": "AMACR",
        "conceptId": "C132364",
        "decode": "Alpha-Methylacyl Coenzyme A Racemase Measurement"
      },
      {
        "submissionValue": "AMBRBTL",
        "conceptId": "C75363",
        "decode": "Amobarbital Measurement"
      },
      {
        "submissionValue": "AMCRMRNA",
        "conceptId": "C132365",
        "decode": "Alpha-Methylacyl Coenzyme A Racemase mRNA Measurement"
      },
      {
        "submissionValue": "AMH",
        "conceptId": "C120625",
        "decode": "Anti-Mullerian Hormone Measurement"
      },
      {
        "submissionValue": "AMITRPTL",
        "conceptId": "C186023",
        "decode": "Amitriptyline Measurement"
      },
      {
        "submissionValue": "AMMONIA",
        "conceptId": "C74799",
        "decode": "Ammonia Measurement"
      },
      {
        "submissionValue": "AMNM",
        "conceptId": "C186024",
        "decode": "Ammonium Measurement"
      },
      {
        "submissionValue": "AMNMCRT",
        "conceptId": "C186025",
        "decode": "Ammonium to Creatinine Ratio Measurement"
      },
      {
        "submissionValue": "AMNOACID",
        "conceptId": "C81183",
        "decode": "Amino Acid Measurement"
      },
      {
        "submissionValue": "AMNPHTH1",
        "conceptId": "C204639",
        "decode": "1-Aminonaphthalene Measurement"
      },
      {
        "submissionValue": "AMNPHTH2",
        "conceptId": "C204640",
        "decode": "2-Aminonaphthalene Measurement"
      },
      {
        "submissionValue": "AMORPHSD",
        "conceptId": "C74666",
        "decode": "Amorphous Sediment Measurement"
      },
      {
        "submissionValue": "AMPEA",
        "conceptId": "C75347",
        "decode": "Amphetamine Measurement"
      },
      {
        "submissionValue": "AMPHET",
        "conceptId": "C74687",
        "decode": "Amphetamine Drug Class Measurement"
      },
      {
        "submissionValue": "AMPHETD",
        "conceptId": "C102262",
        "decode": "Dextroamphetamine Measurement"
      },
      {
        "submissionValue": "AMYLASE",
        "conceptId": "C64434",
        "decode": "Amylase Measurement"
      },
      {
        "submissionValue": "AMYLASEM",
        "conceptId": "C111243",
        "decode": "Macroamylase Measurement"
      },
      {
        "submissionValue": "AMYLASEP",
        "conceptId": "C98767",
        "decode": "Pancreatic Amylase Measurement"
      },
      {
        "submissionValue": "AMYLASES",
        "conceptId": "C98780",
        "decode": "Salivary Amylase Measurement"
      },
      {
        "submissionValue": "AMYLB38",
        "conceptId": "C103352",
        "decode": "Amyloid Beta 1-38 Measurement"
      },
      {
        "submissionValue": "AMYLB40",
        "conceptId": "C103353",
        "decode": "Amyloid Beta 1-40 Measurement"
      },
      {
        "submissionValue": "AMYLB41",
        "conceptId": "C184518",
        "decode": "Amyloid Beta 1-41 Measurement"
      },
      {
        "submissionValue": "AMYLB42",
        "conceptId": "C84809",
        "decode": "Beta Amyloid 42 Measurement"
      },
      {
        "submissionValue": "AMYLOIDA",
        "conceptId": "C125940",
        "decode": "Amyloid A Measurement"
      },
      {
        "submissionValue": "AMYLOIDB",
        "conceptId": "C81999",
        "decode": "Beta Amyloid Measurement"
      },
      {
        "submissionValue": "AMYLOIDP",
        "conceptId": "C81998",
        "decode": "Amyloid P Measurement"
      },
      {
        "submissionValue": "ANABASN",
        "conceptId": "C147298",
        "decode": "Anabasine Measurement"
      },
      {
        "submissionValue": "ANAG",
        "conceptId": "C147299",
        "decode": "Alpha-N-acetylglucosaminidase Measurement"
      },
      {
        "submissionValue": "ANDSTNDL",
        "conceptId": "C74842",
        "decode": "Androstenediol Metabolite Measurement"
      },
      {
        "submissionValue": "ANDSTNDN",
        "conceptId": "C74843",
        "decode": "Androstenedione Measurement"
      },
      {
        "submissionValue": "ANDSTRN",
        "conceptId": "C186026",
        "decode": "Androsterone Measurement"
      },
      {
        "submissionValue": "ANGLBIND",
        "conceptId": "C91372",
        "decode": "Indirect Antiglobulin Test"
      },
      {
        "submissionValue": "ANGLOBDR",
        "conceptId": "C81974",
        "decode": "Direct Antiglobulin Test"
      },
      {
        "submissionValue": "ANGPT1",
        "conceptId": "C111128",
        "decode": "Angiopoietin 1 Measurement"
      },
      {
        "submissionValue": "ANGPT2",
        "conceptId": "C163421",
        "decode": "Angiopoietin 2 Measurement"
      },
      {
        "submissionValue": "ANGPTL3",
        "conceptId": "C225594",
        "decode": "Angiopoietin-Related Protein 3 Measurement"
      },
      {
        "submissionValue": "ANGPTL38",
        "conceptId": "C225595",
        "decode": "Angiopoietin-Related Protein 3/8 Complex Measurement"
      },
      {
        "submissionValue": "ANGPTL4",
        "conceptId": "C199911",
        "decode": "Angiopoietin-Related Protein 4 Measurement"
      },
      {
        "submissionValue": "ANGPTL8",
        "conceptId": "C225596",
        "decode": "Angiopoietin-Related Protein 8 Measurement"
      },
      {
        "submissionValue": "ANGTNS1",
        "conceptId": "C74844",
        "decode": "Angiotensin I Measurement"
      },
      {
        "submissionValue": "ANGTNS2",
        "conceptId": "C74845",
        "decode": "Angiotensin II Measurement"
      },
      {
        "submissionValue": "ANGTNSGN",
        "conceptId": "C74846",
        "decode": "Angiotensinogen Measurement"
      },
      {
        "submissionValue": "ANIONG",
        "conceptId": "C74685",
        "decode": "Anion Gap Measurement"
      },
      {
        "submissionValue": "ANIONG3",
        "conceptId": "C147303",
        "decode": "Anion Gap 3 Measurement"
      },
      {
        "submissionValue": "ANIONG4",
        "conceptId": "C147304",
        "decode": "Anion Gap 4 Measurement"
      },
      {
        "submissionValue": "ANISO",
        "conceptId": "C74797",
        "decode": "Anisocyte Measurement"
      },
      {
        "submissionValue": "ANISOCHR",
        "conceptId": "C161354",
        "decode": "Anisochromia Measurement"
      },
      {
        "submissionValue": "ANLRDN",
        "conceptId": "C184568",
        "decode": "Anileridine Measurement"
      },
      {
        "submissionValue": "ANP",
        "conceptId": "C74886",
        "decode": "Atrial Natriuretic Peptide Measurement"
      },
      {
        "submissionValue": "ANPPROMR",
        "conceptId": "C172523",
        "decode": "Mid-Regional Pro-Atrial Natriuretic Peptide Measurement"
      },
      {
        "submissionValue": "ANPPRONT",
        "conceptId": "C139088",
        "decode": "N-Terminal ProA-type Natriuretic Peptide Measurement"
      },
      {
        "submissionValue": "ANTHRMA",
        "conceptId": "C81958",
        "decode": "Antithrombin Activity Measurement"
      },
      {
        "submissionValue": "ANTHRMAG",
        "conceptId": "C81977",
        "decode": "Antithrombin Antigen Measurement"
      },
      {
        "submissionValue": "ANTIDPRS",
        "conceptId": "C74691",
        "decode": "Antidepressant Measurement"
      },
      {
        "submissionValue": "APAPCYS",
        "conceptId": "C172525",
        "decode": "Acetaminophen-Cysteine Adduct Measurement"
      },
      {
        "submissionValue": "APAPGLC",
        "conceptId": "C221553",
        "decode": "Acetaminophen-Glucuronide Adduct Measurement"
      },
      {
        "submissionValue": "APAPSULF",
        "conceptId": "C221552",
        "decode": "Acetaminophen-Sulfate Adduct Measurement"
      },
      {
        "submissionValue": "APLASCPD",
        "conceptId": "C161372",
        "decode": "APTT-LA Screen to Confirm Percent Difference"
      },
      {
        "submissionValue": "APLSMA2",
        "conceptId": "C103351",
        "decode": "Alpha-2 Antiplasmin Measurement"
      },
      {
        "submissionValue": "APLSMA2A",
        "conceptId": "C122094",
        "decode": "Alpha-2 Antiplasmin Activity Measurement"
      },
      {
        "submissionValue": "APOA",
        "conceptId": "C124337",
        "decode": "Apolipoprotein A Measurement"
      },
      {
        "submissionValue": "APOA1",
        "conceptId": "C74733",
        "decode": "Apolipoprotein A1 Measurement"
      },
      {
        "submissionValue": "APOA2",
        "conceptId": "C82000",
        "decode": "Apolipoprotein AII Measurement"
      },
      {
        "submissionValue": "APOA4",
        "conceptId": "C103354",
        "decode": "Apolipoprotein A4 Measurement"
      },
      {
        "submissionValue": "APOA5",
        "conceptId": "C103355",
        "decode": "Apolipoprotein A5 Measurement"
      },
      {
        "submissionValue": "APOB",
        "conceptId": "C74734",
        "decode": "Apolipoprotein B Measurement"
      },
      {
        "submissionValue": "APOB100",
        "conceptId": "C120628",
        "decode": "Apolipoprotein B100 Measurement"
      },
      {
        "submissionValue": "APOB48",
        "conceptId": "C120629",
        "decode": "Apolipoprotein B48 Measurement"
      },
      {
        "submissionValue": "APOBAPA1",
        "conceptId": "C103356",
        "decode": "Apolipoprotein B to Apolipoprotein A1 Ratio Measurement"
      },
      {
        "submissionValue": "APOC1",
        "conceptId": "C120630",
        "decode": "Apolipoprotein CI Measurement"
      },
      {
        "submissionValue": "APOC2",
        "conceptId": "C100427",
        "decode": "Apolipoprotein C2 Measurement"
      },
      {
        "submissionValue": "APOC3",
        "conceptId": "C82001",
        "decode": "Apolipoprotein CIII Measurement"
      },
      {
        "submissionValue": "APOD",
        "conceptId": "C198281",
        "decode": "Apolipoprotein D Measurement"
      },
      {
        "submissionValue": "APOE",
        "conceptId": "C82002",
        "decode": "Apolipoprotein E Measurement"
      },
      {
        "submissionValue": "APOE4",
        "conceptId": "C92293",
        "decode": "Apolipoprotein E4 Measurement"
      },
      {
        "submissionValue": "APOH",
        "conceptId": "C82003",
        "decode": "Apolipoprotein H Measurement"
      },
      {
        "submissionValue": "APOJ",
        "conceptId": "C100428",
        "decode": "Apolipoprotein J Measurement"
      },
      {
        "submissionValue": "APOJCRT",
        "conceptId": "C111130",
        "decode": "Apolipoprotein J to Creatinine Ratio Measurement"
      },
      {
        "submissionValue": "APPA",
        "conceptId": "C119268",
        "decode": "Amyloid Alpha Precursor Protein Measurement"
      },
      {
        "submissionValue": "APPB",
        "conceptId": "C105438",
        "decode": "Amyloid Beta Precursor Protein Measurement"
      },
      {
        "submissionValue": "APPEAR",
        "conceptId": "C179695",
        "decode": "Specimen Appearance Assessment"
      },
      {
        "submissionValue": "APPT",
        "conceptId": "C119269",
        "decode": "Total Amyloid Precursor Protein Measurement"
      },
      {
        "submissionValue": "APRBRBTL",
        "conceptId": "C184578",
        "decode": "Aprobarbital Measurement"
      },
      {
        "submissionValue": "APRI",
        "conceptId": "C156512",
        "decode": "Aspartate Aminotransferase to Platelet Ratio Index"
      },
      {
        "submissionValue": "APRIL",
        "conceptId": "C111123",
        "decode": "A Proliferation-Inducing Ligand Measurement"
      },
      {
        "submissionValue": "APROTCRS",
        "conceptId": "C100471",
        "decode": "Activated Protein C Resistance Measurement"
      },
      {
        "submissionValue": "APSSCORE",
        "conceptId": "C209578",
        "decode": "Amyloid Probability Score"
      },
      {
        "submissionValue": "APTT",
        "conceptId": "C38462",
        "decode": "Activated Partial Thromboplastin Time"
      },
      {
        "submissionValue": "APTTLAAC",
        "conceptId": "C161369",
        "decode": "APTT-LA Actual to Control Ratio Measurement"
      },
      {
        "submissionValue": "APTTLAS",
        "conceptId": "C102277",
        "decode": "Lupus Anticoagulant Sensitive APTT Measurement"
      },
      {
        "submissionValue": "APTTSTND",
        "conceptId": "C98862",
        "decode": "Activated PTT/Standard Ratio Measurement"
      },
      {
        "submissionValue": "ARA",
        "conceptId": "C102259",
        "decode": "Arachidonic Acid Measurement"
      },
      {
        "submissionValue": "AREG",
        "conceptId": "C199888",
        "decode": "Amphiregulin Measurement"
      },
      {
        "submissionValue": "ARG",
        "conceptId": "C122095",
        "decode": "Arginine Measurement"
      },
      {
        "submissionValue": "ARGSAC",
        "conceptId": "C154763",
        "decode": "Argininosuccinic Acid Measurement"
      },
      {
        "submissionValue": "ARPIPZL",
        "conceptId": "C177974",
        "decode": "Aripiprazole Measurement"
      },
      {
        "submissionValue": "ARR",
        "conceptId": "C124338",
        "decode": "Aldosterone to Renin Activity Ratio Measurement"
      },
      {
        "submissionValue": "ARSENIC",
        "conceptId": "C147305",
        "decode": "Arsenic Measurement"
      },
      {
        "submissionValue": "ASENAPN",
        "conceptId": "C177985",
        "decode": "Asenapine Measurement"
      },
      {
        "submissionValue": "ASMACT",
        "conceptId": "C163422",
        "decode": "Alpha-Smooth Muscle Actin Measurement"
      },
      {
        "submissionValue": "ASN",
        "conceptId": "C122096",
        "decode": "Asparagine Measurement"
      },
      {
        "submissionValue": "ASP",
        "conceptId": "C122097",
        "decode": "Aspartic Acid Measurement"
      },
      {
        "submissionValue": "ASSDNA",
        "conceptId": "C92269",
        "decode": "Anti-Single Stranded DNA IgG Measurement"
      },
      {
        "submissionValue": "AST",
        "conceptId": "C64467",
        "decode": "Aspartate Aminotransferase Measurement"
      },
      {
        "submissionValue": "ASTALT",
        "conceptId": "C176297",
        "decode": "Aspartate Aminotransferase to Alanine Aminotransferase Ratio Measurement"
      },
      {
        "submissionValue": "ASTC",
        "conceptId": "C201427",
        "decode": "Aspartate Aminotransferase Isoenzyme C Measurement"
      },
      {
        "submissionValue": "ASTCK",
        "conceptId": "C158225",
        "decode": "Aspartate Aminotransferase to Creatine Kinase Ratio Measurement"
      },
      {
        "submissionValue": "ASTCREAT",
        "conceptId": "C117830",
        "decode": "Aspartate Aminotransferase to Creatinine Ratio Measurement"
      },
      {
        "submissionValue": "ASTDLG3A",
        "conceptId": "C186027",
        "decode": "3-Alpha-Androstanediol Glucuronide Measurement"
      },
      {
        "submissionValue": "ASTM",
        "conceptId": "C201428",
        "decode": "Aspartate Aminotransferase Isoenzyme M Measurement"
      },
      {
        "submissionValue": "ASYNP",
        "conceptId": "C142272",
        "decode": "Alpha Synuclein Protein Measurement"
      },
      {
        "submissionValue": "ATHMBAAC",
        "conceptId": "C147306",
        "decode": "Antithrombin Activity Actual to Control Ratio Measurement"
      },
      {
        "submissionValue": "ATHMBAC",
        "conceptId": "C170592",
        "decode": "Antithrombin Actual to Control Ratio Measurement"
      },
      {
        "submissionValue": "ATHPIDX",
        "conceptId": "C154726",
        "decode": "Atherogenic Index of Plasma"
      },
      {
        "submissionValue": "ATLKPRTN",
        "conceptId": "C199912",
        "decode": "Antileukoproteinase Measurement"
      },
      {
        "submissionValue": "ATP",
        "conceptId": "C147307",
        "decode": "Adenosine Triphosphate Measurement"
      },
      {
        "submissionValue": "ATPVITE",
        "conceptId": "C103350",
        "decode": "Alpha Tocopherol to Vitamin E Ratio Measurement"
      },
      {
        "submissionValue": "AUERRODS",
        "conceptId": "C74657",
        "decode": "Auer Rod Measurement"
      },
      {
        "submissionValue": "AXL",
        "conceptId": "C165943",
        "decode": "AXL Receptor Tyrosine Kinase Measurement"
      },
      {
        "submissionValue": "AZURGRAN",
        "conceptId": "C116185",
        "decode": "Azurophilic Granule Measurement"
      },
      {
        "submissionValue": "B1BGLP",
        "conceptId": "C127607",
        "decode": "Beta-1B Glycoprotein Measurement"
      },
      {
        "submissionValue": "B2MCREAT",
        "conceptId": "C127608",
        "decode": "Beta-2 Microglobulin to Creatinine Ratio Measurement"
      },
      {
        "submissionValue": "B2MICG",
        "conceptId": "C81980",
        "decode": "Beta-2 Microglobulin Measurement"
      },
      {
        "submissionValue": "BACT",
        "conceptId": "C64469",
        "decode": "Bacterial Count"
      },
      {
        "submissionValue": "BAFF",
        "conceptId": "C111135",
        "decode": "B-Cell Activating Factor Measurement"
      },
      {
        "submissionValue": "BALA",
        "conceptId": "C154764",
        "decode": "Beta Alanine Measurement"
      },
      {
        "submissionValue": "BAMBTAC",
        "conceptId": "C154765",
        "decode": "Beta-Aminobutyric Acid Measurement"
      },
      {
        "submissionValue": "BARB",
        "conceptId": "C74688",
        "decode": "Barbiturate Drug Class Measurement"
      },
      {
        "submissionValue": "BASEDEF",
        "conceptId": "C147309",
        "decode": "Base Deficit"
      },
      {
        "submissionValue": "BASEEXCS",
        "conceptId": "C119270",
        "decode": "Base Excess Measurement"
      },
      {
        "submissionValue": "BASO",
        "conceptId": "C64470",
        "decode": "Absolute Basophil Count"
      },
      {
        "submissionValue": "BASOB",
        "conceptId": "C130154",
        "decode": "Basophil Band Form Count"
      },
      {
        "submissionValue": "BASOBLE",
        "conceptId": "C130155",
        "decode": "Basophil Band Form to Leukocytes Ratio Measurement"
      },
      {
        "submissionValue": "BASOCE",
        "conceptId": "C98865",
        "decode": "Basophil to Total Cell Ratio Measurement"
      },
      {
        "submissionValue": "BASOIM",
        "conceptId": "C96670",
        "decode": "Immature Basophil Count"
      },
      {
        "submissionValue": "BASOIMLE",
        "conceptId": "C96671",
        "decode": "Immature Basophil to Leukocyte Ratio Measurement"
      },
      {
        "submissionValue": "BASOLE",
        "conceptId": "C64471",
        "decode": "Basophil to Leukocyte Ratio"
      },
      {
        "submissionValue": "BASOMM",
        "conceptId": "C135399",
        "decode": "Basophilic Metamyelocyte Count"
      },
      {
        "submissionValue": "BASOMYL",
        "conceptId": "C135400",
        "decode": "Basophilic Myelocyte Count"
      },
      {
        "submissionValue": "BASOMYLY",
        "conceptId": "C181448",
        "decode": "Basophilic Myelocytes to Lymphocytes Ratio Measurement"
      },
      {
        "submissionValue": "BASOSG",
        "conceptId": "C135401",
        "decode": "Segmented Basophil Count"
      },
      {
        "submissionValue": "BCEFNCTN",
        "conceptId": "C123455",
        "decode": "Beta-Cell Function Measurement"
      },
      {
        "submissionValue": "BCMAS",
        "conceptId": "C170577",
        "decode": "Soluble B Cell Maturation Antigen Measurement"
      },
      {
        "submissionValue": "BD2",
        "conceptId": "C122102",
        "decode": "Beta-defensin 2 Measurement"
      },
      {
        "submissionValue": "BDNF",
        "conceptId": "C82004",
        "decode": "Brain-Derived Neurotrophic Factor Measurement"
      },
      {
        "submissionValue": "BENZENE",
        "conceptId": "C204645",
        "decode": "Benzene Measurement"
      },
      {
        "submissionValue": "BETACRTN",
        "conceptId": "C100472",
        "decode": "Beta Carotene Measurement"
      },
      {
        "submissionValue": "BETAINES",
        "conceptId": "C172517",
        "decode": "Betaines Measurement"
      },
      {
        "submissionValue": "BFTNN",
        "conceptId": "C184531",
        "decode": "Bufotenine Measurement"
      },
      {
        "submissionValue": "BGTCPHRL",
        "conceptId": "C172497",
        "decode": "Beta and Gamma Tocopherol Measurement"
      },
      {
        "submissionValue": "BHBACTAC",
        "conceptId": "C186028",
        "decode": "Beta-Hydroxybutyrate to Acetoacetate Ratio Measurement"
      },
      {
        "submissionValue": "BHBEXR",
        "conceptId": "C189520",
        "decode": "Beta-Hydroxybutyrate Excretion Rate Measurement"
      },
      {
        "submissionValue": "BHYXBTR",
        "conceptId": "C96568",
        "decode": "Beta-Hydroxybutyrate Measurement"
      },
      {
        "submissionValue": "BICARB",
        "conceptId": "C74667",
        "decode": "Bicarbonate Measurement"
      },
      {
        "submissionValue": "BILDELTA",
        "conceptId": "C214677",
        "decode": "Delta Bilirubin Measurement"
      },
      {
        "submissionValue": "BILDIR",
        "conceptId": "C64481",
        "decode": "Direct Bilirubin Measurement"
      },
      {
        "submissionValue": "BILDIRBI",
        "conceptId": "C158226",
        "decode": "Direct Bilirubin to Bilirubin Ratio Measurement"
      },
      {
        "submissionValue": "BILEAC",
        "conceptId": "C74800",
        "decode": "Bile Acid Measurement"
      },
      {
        "submissionValue": "BILGLC",
        "conceptId": "C214676",
        "decode": "Glucuronidated Bilirubin Measurement"
      },
      {
        "submissionValue": "BILI",
        "conceptId": "C38037",
        "decode": "Total Bilirubin Measurement"
      },
      {
        "submissionValue": "BILIND",
        "conceptId": "C64483",
        "decode": "Indirect Bilirubin Measurement"
      },
      {
        "submissionValue": "BITECE",
        "conceptId": "C74700",
        "decode": "Bite Cell Count"
      },
      {
        "submissionValue": "BJPROT",
        "conceptId": "C111136",
        "decode": "Bence-Jones Protein Measurement"
      },
      {
        "submissionValue": "BLAST",
        "conceptId": "C74605",
        "decode": "Blast Count"
      },
      {
        "submissionValue": "BLASTCE",
        "conceptId": "C150836",
        "decode": "Blasts to Total Cells Ratio Measurement"
      },
      {
        "submissionValue": "BLASTERY",
        "conceptId": "C147311",
        "decode": "Basophilic Erythroblast Count"
      },
      {
        "submissionValue": "BLASTIMM",
        "conceptId": "C103407",
        "decode": "Immunoblast Count"
      },
      {
        "submissionValue": "BLASTLE",
        "conceptId": "C64487",
        "decode": "Blast to Leukocyte Ratio"
      },
      {
        "submissionValue": "BLASTLM",
        "conceptId": "C74630",
        "decode": "Leukemic Blast Count"
      },
      {
        "submissionValue": "BLASTRUB",
        "conceptId": "C100446",
        "decode": "Proerythroblast Measurement"
      },
      {
        "submissionValue": "BLEEDT",
        "conceptId": "C89775",
        "decode": "Bleeding Time"
      },
      {
        "submissionValue": "BLISTCE",
        "conceptId": "C127609",
        "decode": "Blister Cell Count"
      },
      {
        "submissionValue": "BLSTIMLY",
        "conceptId": "C106535",
        "decode": "Immunoblasts to Lymphocytes Ratio Measurement"
      },
      {
        "submissionValue": "BLSTLMLY",
        "conceptId": "C74641",
        "decode": "Leukemic Blast to Lymphocyte Ratio Measurement"
      },
      {
        "submissionValue": "BLSTLY",
        "conceptId": "C102278",
        "decode": "Lymphoblast Count"
      },
      {
        "submissionValue": "BLSTLYLE",
        "conceptId": "C105444",
        "decode": "Lymphoblast to Leukocyte Ratio Measurement"
      },
      {
        "submissionValue": "BLSTLYLY",
        "conceptId": "C189503",
        "decode": "Lymphoblast to Lymphocyte Ratio Measurement"
      },
      {
        "submissionValue": "BLSTMBCE",
        "conceptId": "C98761",
        "decode": "Myeloblast to Total Cell Ratio Measurement"
      },
      {
        "submissionValue": "BLSTMGK",
        "conceptId": "C98752",
        "decode": "Megakaryoblast Cell Count"
      },
      {
        "submissionValue": "BLSTMKCE",
        "conceptId": "C98753",
        "decode": "Megakaryoblast to Total Cell Ratio Measurement"
      },
      {
        "submissionValue": "BLSTMKLE",
        "conceptId": "C187813",
        "decode": "Megakaryoblasts to Leukocytes Ratio Measurement"
      },
      {
        "submissionValue": "BLSTNM",
        "conceptId": "C189501",
        "decode": "Normoblast Count"
      },
      {
        "submissionValue": "BLSTNMCE",
        "conceptId": "C98764",
        "decode": "Normoblast to Total Cell Ratio Measurement"
      },
      {
        "submissionValue": "BLSTRBCE",
        "conceptId": "C98870",
        "decode": "Pronormoblast to Total Cell Ratio Measurement"
      },
      {
        "submissionValue": "BLSTRSID",
        "conceptId": "C100419",
        "decode": "Ring Sideroblast Measurement"
      },
      {
        "submissionValue": "BLSTSID",
        "conceptId": "C100418",
        "decode": "Sideroblast Measurement"
      },
      {
        "submissionValue": "BLYCE",
        "conceptId": "C174314",
        "decode": "B-Lymphocyte Count"
      },
      {
        "submissionValue": "BLYCECE",
        "conceptId": "C174317",
        "decode": "B-Lymphocyte to Total Cells Ratio Measurement"
      },
      {
        "submissionValue": "BLYCELE",
        "conceptId": "C174316",
        "decode": "B-Lymphocyte to Leukocyte Ratio Measurement"
      },
      {
        "submissionValue": "BLYCELY",
        "conceptId": "C174315",
        "decode": "B-Lymphocyte to Lymphocyte Ratio Measurement"
      },
      {
        "submissionValue": "BLYMXM",
        "conceptId": "C128951",
        "decode": "B-lymphocyte Crossmatch Measurement"
      },
      {
        "submissionValue": "BNP",
        "conceptId": "C74735",
        "decode": "Brain Natriuretic Peptide Measurement"
      },
      {
        "submissionValue": "BNPPRO",
        "conceptId": "C82032",
        "decode": "ProB-Type Natriuretic Peptide Measurement"
      },
      {
        "submissionValue": "BNPPRONT",
        "conceptId": "C96610",
        "decode": "N-Terminal ProB-type Natriuretic Peptide Measurement"
      },
      {
        "submissionValue": "BNZDZPN",
        "conceptId": "C74692",
        "decode": "Benzodiazepine Measurement"
      },
      {
        "submissionValue": "BNZLCGN",
        "conceptId": "C75350",
        "decode": "Benzoylecgonine Measurement"
      },
      {
        "submissionValue": "BOLDNON",
        "conceptId": "C75380",
        "decode": "Boldenone Measurement"
      },
      {
        "submissionValue": "BOLSTRN",
        "conceptId": "C184579",
        "decode": "Bolasterone Measurement"
      },
      {
        "submissionValue": "BRBTL",
        "conceptId": "C184608",
        "decode": "Barbital Measurement"
      },
      {
        "submissionValue": "BRMZPM",
        "conceptId": "C184609",
        "decode": "Bromazepam Measurement"
      },
      {
        "submissionValue": "BRVRCTM",
        "conceptId": "C184639",
        "decode": "Brivaracetam Measurement"
      },
      {
        "submissionValue": "BRXPIPZL",
        "conceptId": "C177973",
        "decode": "Brexpiprazole Measurement"
      },
      {
        "submissionValue": "BTC",
        "conceptId": "C199889",
        "decode": "Betacellulin Measurement"
      },
      {
        "submissionValue": "BTECERBC",
        "conceptId": "C74634",
        "decode": "Bite Cell to Erythrocyte Ratio Measurement"
      },
      {
        "submissionValue": "BTK",
        "conceptId": "C165772",
        "decode": "Bruton's Tyrosine Kinase Measurement"
      },
      {
        "submissionValue": "BTKFR",
        "conceptId": "C165944",
        "decode": "Free Bruton's Tyrosine Kinase Measurement"
      },
      {
        "submissionValue": "BTLBARTL",
        "conceptId": "C75364",
        "decode": "Butabarbital Measurement"
      },
      {
        "submissionValue": "BTLBTL",
        "conceptId": "C75365",
        "decode": "Butalbital Measurement"
      },
      {
        "submissionValue": "BTRPHNL",
        "conceptId": "C184610",
        "decode": "Butorphanol Measurement"
      },
      {
        "submissionValue": "BUCHE",
        "conceptId": "C111142",
        "decode": "Butyrylcholinesterase Measurement"
      },
      {
        "submissionValue": "BUPREN",
        "conceptId": "C75352",
        "decode": "Buprenorphine Measurement"
      },
      {
        "submissionValue": "BUPROP",
        "conceptId": "C209579",
        "decode": "Bupropion Measurement"
      },
      {
        "submissionValue": "BURRCE",
        "conceptId": "C74701",
        "decode": "Burr Cell Count"
      },
      {
        "submissionValue": "BUTDN1_3",
        "conceptId": "C204638",
        "decode": "1,3-Butadiene Measurement"
      },
      {
        "submissionValue": "BUTYLN",
        "conceptId": "C184532",
        "decode": "Butylone Measurement"
      },
      {
        "submissionValue": "BZAPYR",
        "conceptId": "C204646",
        "decode": "Benzo[a]pyrene Measurement"
      },
      {
        "submissionValue": "BZP",
        "conceptId": "C184554",
        "decode": "Benzylpiperazine Measurement"
      },
      {
        "submissionValue": "C1INH",
        "conceptId": "C147313",
        "decode": "Complement C1 Esterase Inhibitor Measurement"
      },
      {
        "submissionValue": "C1M",
        "conceptId": "C221554",
        "decode": "MMP-Degraded Type I Collagen Fragment C1M Measurement"
      },
      {
        "submissionValue": "C1Q",
        "conceptId": "C186029",
        "decode": "Complement C1q Measurement"
      },
      {
        "submissionValue": "C2",
        "conceptId": "C202394",
        "decode": "Complement C2 Measurement"
      },
      {
        "submissionValue": "C2FR",
        "conceptId": "C204634",
        "decode": "Free Complement C2 Measurement"
      },
      {
        "submissionValue": "C2FRC2",
        "conceptId": "C204633",
        "decode": "Free Complement C2 to Complement C2 Ratio Measurement"
      },
      {
        "submissionValue": "C2M",
        "conceptId": "C221555",
        "decode": "MMP-Degraded Type II Collagen Fragment C2M Measurement"
      },
      {
        "submissionValue": "C3",
        "conceptId": "C80174",
        "decode": "Complement C3 Measurement"
      },
      {
        "submissionValue": "C3A",
        "conceptId": "C80175",
        "decode": "Complement C3a Measurement"
      },
      {
        "submissionValue": "C3ADARG",
        "conceptId": "C163423",
        "decode": "Complement C3a DesArg Measurement"
      },
      {
        "submissionValue": "C3B",
        "conceptId": "C80176",
        "decode": "Complement C3b Measurement"
      },
      {
        "submissionValue": "C3C",
        "conceptId": "C184521",
        "decode": "Complement C3c Measurement"
      },
      {
        "submissionValue": "C3M",
        "conceptId": "C165945",
        "decode": "Collagen III Neo-Peptide C3M Measurement"
      },
      {
        "submissionValue": "C4",
        "conceptId": "C80177",
        "decode": "Complement C4 Measurement"
      },
      {
        "submissionValue": "C4A",
        "conceptId": "C80178",
        "decode": "Complement C4a Measurement"
      },
      {
        "submissionValue": "C4D",
        "conceptId": "C127610",
        "decode": "Complement C4d Measurement"
      },
      {
        "submissionValue": "C4G",
        "conceptId": "C221557",
        "decode": "MMP-Degraded Type IV Collagen Fragment C4G Measurement"
      },
      {
        "submissionValue": "C4M",
        "conceptId": "C221556",
        "decode": "MMP-Degraded Type IV Collagen Fragment C4M Measurement"
      },
      {
        "submissionValue": "C4MA3",
        "conceptId": "C221558",
        "decode": "MMP 2,9,12-Degraded Type IV Collagen Alpha 3 Fragment C4Ma3 Measurement"
      },
      {
        "submissionValue": "C5",
        "conceptId": "C160935",
        "decode": "Complement C5 Measurement"
      },
      {
        "submissionValue": "C5A",
        "conceptId": "C80179",
        "decode": "Complement C5a Measurement"
      },
      {
        "submissionValue": "C5B9",
        "conceptId": "C158235",
        "decode": "Complement C5b-9 Measurement"
      },
      {
        "submissionValue": "C5B9S",
        "conceptId": "C170579",
        "decode": "Soluble Complement C5b-9 Measurement"
      },
      {
        "submissionValue": "C5FR",
        "conceptId": "C161357",
        "decode": "Free Complement C5 Measurement"
      },
      {
        "submissionValue": "C6M",
        "conceptId": "C221559",
        "decode": "MMP 2-Degraded Type VI Collagen Fragment C6M Measurement"
      },
      {
        "submissionValue": "C6MA3",
        "conceptId": "C221560",
        "decode": "MMP 2-Degraded Type VI Collagen Alpha-3 Subunit Fragment C6Ma3 Measurement"
      },
      {
        "submissionValue": "CA",
        "conceptId": "C64488",
        "decode": "Calcium Measurement"
      },
      {
        "submissionValue": "CA125AG",
        "conceptId": "C79089",
        "decode": "CA-125 Measurement"
      },
      {
        "submissionValue": "CA15_3AG",
        "conceptId": "C103362",
        "decode": "Cancer Antigen 15-3 Measurement"
      },
      {
        "submissionValue": "CA19_9AG",
        "conceptId": "C81982",
        "decode": "Cancer Antigen 19-9 Measurement"
      },
      {
        "submissionValue": "CA1AG",
        "conceptId": "C103361",
        "decode": "Cancer Antigen 1 Measurement"
      },
      {
        "submissionValue": "CA242AG",
        "conceptId": "C172526",
        "decode": "Cancer Antigen 242 Measurement"
      },
      {
        "submissionValue": "CA2729AG",
        "conceptId": "C111143",
        "decode": "Cancer Antigen 27-29 Measurement"
      },
      {
        "submissionValue": "CA50AG",
        "conceptId": "C187794",
        "decode": "Cancer Antigen 50 Measurement"
      },
      {
        "submissionValue": "CA72_4AG",
        "conceptId": "C106505",
        "decode": "Cancer Antigen 72-4 Measurement"
      },
      {
        "submissionValue": "CABOT",
        "conceptId": "C74702",
        "decode": "Cabot Ring Count"
      },
      {
        "submissionValue": "CACLR",
        "conceptId": "C96589",
        "decode": "Calcium Clearance Measurement"
      },
      {
        "submissionValue": "CACR",
        "conceptId": "C119272",
        "decode": "Calcium Corrected Measurement"
      },
      {
        "submissionValue": "CACRALB",
        "conceptId": "C154753",
        "decode": "Albumin Corrected Calcium Measurement"
      },
      {
        "submissionValue": "CACREAT",
        "conceptId": "C79439",
        "decode": "Calcium to Creatinine Ratio Measurement"
      },
      {
        "submissionValue": "CACRTP",
        "conceptId": "C147314",
        "decode": "Calcium Corrected for Total Protein Measurement"
      },
      {
        "submissionValue": "CADMIUM",
        "conceptId": "C204647",
        "decode": "Cadmium Measurement"
      },
      {
        "submissionValue": "CADPRH1",
        "conceptId": "C187826",
        "decode": "Cyclic ADP Ribose Hydrolase 1 Measurement"
      },
      {
        "submissionValue": "CAEXR",
        "conceptId": "C150815",
        "decode": "Calcium Excretion Rate"
      },
      {
        "submissionValue": "CAFFEINE",
        "conceptId": "C75346",
        "decode": "Caffeine Measurement"
      },
      {
        "submissionValue": "CAION",
        "conceptId": "C81948",
        "decode": "Ionized Calcium Measurement"
      },
      {
        "submissionValue": "CAIONPH",
        "conceptId": "C125941",
        "decode": "Ionized pH Adjusted Calcium Measurement"
      },
      {
        "submissionValue": "CALB",
        "conceptId": "C125942",
        "decode": "Calbindin Measurement"
      },
      {
        "submissionValue": "CALPRO",
        "conceptId": "C82005",
        "decode": "Calprotectin Measurement"
      },
      {
        "submissionValue": "CAMP",
        "conceptId": "C124339",
        "decode": "Cyclic Adenosine 3,5-Monophosphate Measurement"
      },
      {
        "submissionValue": "CAMPCRT",
        "conceptId": "C186030",
        "decode": "Cyclic Adenosine 3,5 Monophosphate to Creatinine Ratio Measurement"
      },
      {
        "submissionValue": "CAN",
        "conceptId": "C176310",
        "decode": "Coefficient of Nitrogen Absorption Measurement"
      },
      {
        "submissionValue": "CANNAB",
        "conceptId": "C74689",
        "decode": "Cannabinoid Drug Class Measurement"
      },
      {
        "submissionValue": "CANNABM",
        "conceptId": "C165946",
        "decode": "Cannabinoid Metabolite Measurement"
      },
      {
        "submissionValue": "CANNABS",
        "conceptId": "C135402",
        "decode": "Synthetic Cannabinoid Measurement"
      },
      {
        "submissionValue": "CAOXAEXR",
        "conceptId": "C187793",
        "decode": "Calcium Oxalate Excretion Rate"
      },
      {
        "submissionValue": "CAPHOS",
        "conceptId": "C139087",
        "decode": "Calcium to Phosphorus Ratio Measurement"
      },
      {
        "submissionValue": "CAPHOSPD",
        "conceptId": "C103360",
        "decode": "Calcium and Phosphorus Product Measurement"
      },
      {
        "submissionValue": "CARBXHGB",
        "conceptId": "C96591",
        "decode": "Carboxyhemoglobin Measurement"
      },
      {
        "submissionValue": "CARIPRZN",
        "conceptId": "C177975",
        "decode": "Cariprazine Measurement"
      },
      {
        "submissionValue": "CARNIT",
        "conceptId": "C74682",
        "decode": "Total Carnitine Measurement"
      },
      {
        "submissionValue": "CARNITAT",
        "conceptId": "C92288",
        "decode": "Carnitine Acetyl Transferase Measurement"
      },
      {
        "submissionValue": "CARNITF",
        "conceptId": "C74677",
        "decode": "Free Carnitine Measurement"
      },
      {
        "submissionValue": "CARNTEXR",
        "conceptId": "C163424",
        "decode": "Carnitine Excretion Rate"
      },
      {
        "submissionValue": "CARTP",
        "conceptId": "C142273",
        "decode": "Cocaine Amphetamine-Regulated Transcript Protein Measurement"
      },
      {
        "submissionValue": "CASEIN",
        "conceptId": "C198282",
        "decode": "Casein Measurement"
      },
      {
        "submissionValue": "CASTS",
        "conceptId": "C213922",
        "decode": "Cast Absent Indicator"
      },
      {
        "submissionValue": "CASULPH",
        "conceptId": "C96590",
        "decode": "Calcium Sulphate Measurement"
      },
      {
        "submissionValue": "CATHNON",
        "conceptId": "C184534",
        "decode": "Cathinone Measurement"
      },
      {
        "submissionValue": "CATNINB",
        "conceptId": "C103357",
        "decode": "Beta Catenin Measurement"
      },
      {
        "submissionValue": "CBA",
        "conceptId": "C135403",
        "decode": "Complement Ba Measurement"
      },
      {
        "submissionValue": "CBANH9",
        "conceptId": "C172510",
        "decode": "Carbonic Anhydrase 9 Measurement"
      },
      {
        "submissionValue": "CBB",
        "conceptId": "C80172",
        "decode": "Complement Bb Measurement"
      },
      {
        "submissionValue": "CBS",
        "conceptId": "C172520",
        "decode": "Cystathionine Beta-Synthase Measurement"
      },
      {
        "submissionValue": "CCK",
        "conceptId": "C74850",
        "decode": "Cholecystokinin Measurement"
      },
      {
        "submissionValue": "CCL1",
        "conceptId": "C199894",
        "decode": "Chemokine (C-C Motif) Ligand 1 Measurement"
      },
      {
        "submissionValue": "CCL12",
        "conceptId": "C130156",
        "decode": "Chemokine (C-C Motif) Ligand 12 Measurement"
      },
      {
        "submissionValue": "CCL13",
        "conceptId": "C165947",
        "decode": "Chemokine (C-C Motif) Ligand 13 Measurement"
      },
      {
        "submissionValue": "CCL15",
        "conceptId": "C199914",
        "decode": "Chemokine (C-C Motif) Ligand 15 Measurement"
      },
      {
        "submissionValue": "CCL16",
        "conceptId": "C165948",
        "decode": "Chemokine (C-C Motif) Ligand 16 Measurement"
      },
      {
        "submissionValue": "CCL17",
        "conceptId": "C112236",
        "decode": "Chemokine (C-C Motif) Ligand 17 Measurement"
      },
      {
        "submissionValue": "CCL18",
        "conceptId": "C112237",
        "decode": "Chemokine (C-C Motif) Ligand 18 Measurement"
      },
      {
        "submissionValue": "CCL19",
        "conceptId": "C130157",
        "decode": "Chemokine (C-C Motif) Ligand 19 Measurement"
      },
      {
        "submissionValue": "CCL20",
        "conceptId": "C161362",
        "decode": "Chemokine (C-C Motif) Ligand 20 Measurement"
      },
      {
        "submissionValue": "CCL21",
        "conceptId": "C147315",
        "decode": "Chemokine (C-C Motif) Ligand 21 Measurement"
      },
      {
        "submissionValue": "CCL23",
        "conceptId": "C165949",
        "decode": "Chemokine (C-C Motif) Ligand 23 Measurement"
      },
      {
        "submissionValue": "CCL25",
        "conceptId": "C165950",
        "decode": "Chemokine (C-C Motif) Ligand 25 Measurement"
      },
      {
        "submissionValue": "CCL2EXR",
        "conceptId": "C156520",
        "decode": "Chemokine (C-C Motif) Ligand 2 Excretion Rate"
      },
      {
        "submissionValue": "CCL7",
        "conceptId": "C130158",
        "decode": "Chemokine (C-C Motif) Ligand 7 Measurement"
      },
      {
        "submissionValue": "CCL8",
        "conceptId": "C165951",
        "decode": "Chemokine (C-C Motif) Ligand 8 Measurement"
      },
      {
        "submissionValue": "CCR5",
        "conceptId": "C122103",
        "decode": "C-C Chemokine Receptor Type 5 Measurement"
      },
      {
        "submissionValue": "CD14S",
        "conceptId": "C225597",
        "decode": "Myeloid Cell-Specific Leucine-Rich Glycoprotein Measurement"
      },
      {
        "submissionValue": "CD28TGP",
        "conceptId": "C202433",
        "decode": "T-Cell Surface Glycoprotein CD8 Measurement"
      },
      {
        "submissionValue": "CDCA",
        "conceptId": "C172498",
        "decode": "Chenodeoxycholate Measurement"
      },
      {
        "submissionValue": "CDCACM",
        "conceptId": "C176239",
        "decode": "Chenodeoxycholate Compounds Measurement"
      },
      {
        "submissionValue": "CDH1",
        "conceptId": "C199915",
        "decode": "Cadherin 1 Measurement"
      },
      {
        "submissionValue": "CDT",
        "conceptId": "C101016",
        "decode": "Carbohydrate-Deficient Transferrin Measurement"
      },
      {
        "submissionValue": "CDTTFRN",
        "conceptId": "C125943",
        "decode": "Carbohydrate-Deficient Transferrin to Transferrin Ratio Measurement"
      },
      {
        "submissionValue": "CEA",
        "conceptId": "C81983",
        "decode": "Carcinoembryonic Antigen Measurement"
      },
      {
        "submissionValue": "CEACAM1",
        "conceptId": "C172511",
        "decode": "CEA Cell Adhesion Molecule 1 Measurement"
      },
      {
        "submissionValue": "CEACAM5",
        "conceptId": "C191212",
        "decode": "CEA Cell Adhesion Molecule 5 Measurement"
      },
      {
        "submissionValue": "CEACAM5S",
        "conceptId": "C191290",
        "decode": "Soluble CEA Cell Adhesion Molecule 5 Measurement"
      },
      {
        "submissionValue": "CEC",
        "conceptId": "C96592",
        "decode": "Circulating Endothelial Cell Count"
      },
      {
        "submissionValue": "CEIMCE",
        "conceptId": "C111234",
        "decode": "Immature Cell to Total Cell Ratio Measurement"
      },
      {
        "submissionValue": "CELLS",
        "conceptId": "C48938",
        "decode": "Cell Count"
      },
      {
        "submissionValue": "CELLSIM",
        "conceptId": "C96672",
        "decode": "Immature Cell Count"
      },
      {
        "submissionValue": "CELLULAR",
        "conceptId": "C111153",
        "decode": "Cellularity Measurement"
      },
      {
        "submissionValue": "CEMORPH",
        "conceptId": "C184342",
        "decode": "Cell Morphology Assessment"
      },
      {
        "submissionValue": "CETP",
        "conceptId": "C120632",
        "decode": "Cholesteryl Ester Transfer Protein Measurement"
      },
      {
        "submissionValue": "CETPA",
        "conceptId": "C103380",
        "decode": "Cholesteryl Ester Transfer Protein Activity Measurement"
      },
      {
        "submissionValue": "CFA",
        "conceptId": "C176311",
        "decode": "Coefficient of Fat Absorption Measurement"
      },
      {
        "submissionValue": "CFH",
        "conceptId": "C199918",
        "decode": "Complement Factor H Measurement"
      },
      {
        "submissionValue": "CFHR1",
        "conceptId": "C199919",
        "decode": "Complement Factor H-Related Protein 1 Measurement"
      },
      {
        "submissionValue": "CGA",
        "conceptId": "C122108",
        "decode": "Chromogranin A Measurement"
      },
      {
        "submissionValue": "CGADJMW",
        "conceptId": "C161374",
        "decode": "Choriogonadotropin Adjusted for Maternal Weight Measurement"
      },
      {
        "submissionValue": "CGMP",
        "conceptId": "C111165",
        "decode": "Cyclic Guanosine Monophosphate Measurement"
      },
      {
        "submissionValue": "CH100",
        "conceptId": "C147317",
        "decode": "Complement CH100 Measurement"
      },
      {
        "submissionValue": "CH50",
        "conceptId": "C100423",
        "decode": "CH50 Measurement"
      },
      {
        "submissionValue": "CHCM",
        "conceptId": "C139067",
        "decode": "Corpuscular Hemoglobin Concentration Mean"
      },
      {
        "submissionValue": "CHCMR",
        "conceptId": "C138970",
        "decode": "Reticulocyte Corpuscular Hemoglobin Concentration Mean"
      },
      {
        "submissionValue": "CHCNT",
        "conceptId": "C139066",
        "decode": "Corpuscular Hemoglobin Content"
      },
      {
        "submissionValue": "CHDH7A25",
        "conceptId": "C181430",
        "decode": "7alpha,25-Dihydroxycholesterol Measurement"
      },
      {
        "submissionValue": "CHDH7A27",
        "conceptId": "C181431",
        "decode": "7alpha,27-Dihydroxycholesterol Measurement"
      },
      {
        "submissionValue": "CHDW",
        "conceptId": "C139068",
        "decode": "Corpuscular Hemoglobin Concentration Distribution Width"
      },
      {
        "submissionValue": "CHDWR",
        "conceptId": "C139069",
        "decode": "Reticulocyte Corpuscular Hemoglobin Distribution Width"
      },
      {
        "submissionValue": "CHE24S25",
        "conceptId": "C181423",
        "decode": "24(S),25-Epoxycholesterol Measurement"
      },
      {
        "submissionValue": "CHITTDS",
        "conceptId": "C187795",
        "decode": "Chitotriosidase-1 Measurement"
      },
      {
        "submissionValue": "CHLMCRN",
        "conceptId": "C120633",
        "decode": "Chylomicrons Measurement"
      },
      {
        "submissionValue": "CHLMCRNT",
        "conceptId": "C174302",
        "decode": "Chylomicron Triglyceride Measurement"
      },
      {
        "submissionValue": "CHLRHDRT",
        "conceptId": "C184612",
        "decode": "Chloral Hydrate Measurement"
      },
      {
        "submissionValue": "CHLRPMZN",
        "conceptId": "C177968",
        "decode": "Chlorpromazine Measurement"
      },
      {
        "submissionValue": "CHOL",
        "conceptId": "C105586",
        "decode": "Cholesterol Measurement"
      },
      {
        "submissionValue": "CHOLATE",
        "conceptId": "C172499",
        "decode": "Cholate Measurement"
      },
      {
        "submissionValue": "CHOLCM",
        "conceptId": "C176232",
        "decode": "Cholate Compounds Measurement"
      },
      {
        "submissionValue": "CHOLESTR",
        "conceptId": "C225598",
        "decode": "Cholesteryl Ester Measurement"
      },
      {
        "submissionValue": "CHOLH20S",
        "conceptId": "C181420",
        "decode": "20(S)-Hydroxycholesterol Measurement"
      },
      {
        "submissionValue": "CHOLH22R",
        "conceptId": "C181421",
        "decode": "22(R)-Hydroxycholesterol Measurement"
      },
      {
        "submissionValue": "CHOLH22S",
        "conceptId": "C181422",
        "decode": "22(S)-Hydroxycholesterol Measurement"
      },
      {
        "submissionValue": "CHOLH24R",
        "conceptId": "C181424",
        "decode": "24(R)-Hydroxycholesterol Measurement"
      },
      {
        "submissionValue": "CHOLH24S",
        "conceptId": "C181425",
        "decode": "24(S)-Hydroxycholesterol Measurement"
      },
      {
        "submissionValue": "CHOLH25",
        "conceptId": "C181426",
        "decode": "25-Hydroxycholesterol Measurement"
      },
      {
        "submissionValue": "CHOLH27",
        "conceptId": "C181427",
        "decode": "27-Hydroxycholesterol Measurement"
      },
      {
        "submissionValue": "CHOLH7A",
        "conceptId": "C181432",
        "decode": "7alpha-Hydroxycholesterol Measurement"
      },
      {
        "submissionValue": "CHOLH7B",
        "conceptId": "C181433",
        "decode": "7beta-Hydroxycholesterol Measurement"
      },
      {
        "submissionValue": "CHOLHDL",
        "conceptId": "C80171",
        "decode": "Cholesterol to HDL-Cholesterol Ratio Measurement"
      },
      {
        "submissionValue": "CHOLINES",
        "conceptId": "C92289",
        "decode": "Cholinesterase Measurement"
      },
      {
        "submissionValue": "CHOLK7",
        "conceptId": "C181434",
        "decode": "7-Ketocholesterol Measurement"
      },
      {
        "submissionValue": "CHOLOH4B",
        "conceptId": "C156514",
        "decode": "4-Beta-Hydroxycholesterol Measurement"
      },
      {
        "submissionValue": "CHOLSTNL",
        "conceptId": "C181435",
        "decode": "Cholestanol Measurement"
      },
      {
        "submissionValue": "CHOLSULF",
        "conceptId": "C181436",
        "decode": "Cholesterol Sulfate Measurement"
      },
      {
        "submissionValue": "CHYTRYP",
        "conceptId": "C111159",
        "decode": "Chymotrypsin Measurement"
      },
      {
        "submissionValue": "CIC",
        "conceptId": "C127611",
        "decode": "Circulating Immune Complex Measurement"
      },
      {
        "submissionValue": "CIT",
        "conceptId": "C122109",
        "decode": "Citrulline Measurement"
      },
      {
        "submissionValue": "CITCREAT",
        "conceptId": "C122110",
        "decode": "Citrate to Creatinine Ratio Measurement"
      },
      {
        "submissionValue": "CITRATE",
        "conceptId": "C92248",
        "decode": "Citrate Measurement"
      },
      {
        "submissionValue": "CITRTEXR",
        "conceptId": "C163425",
        "decode": "Citrate Excretion Rate"
      },
      {
        "submissionValue": "CK",
        "conceptId": "C64489",
        "decode": "Creatine Kinase Measurement"
      },
      {
        "submissionValue": "CKBB",
        "conceptId": "C64490",
        "decode": "Creatine Kinase BB Measurement"
      },
      {
        "submissionValue": "CKBBCK",
        "conceptId": "C79466",
        "decode": "Creatine Kinase BB to Total Creatine Kinase Ratio Measurement"
      },
      {
        "submissionValue": "CKMB",
        "conceptId": "C64491",
        "decode": "Creatine Kinase MB Measurement"
      },
      {
        "submissionValue": "CKMBCK",
        "conceptId": "C79441",
        "decode": "Creatine Kinase MB to Total Creatine Kinase Ratio Measurement"
      },
      {
        "submissionValue": "CKMM",
        "conceptId": "C64494",
        "decode": "Creatine Kinase MM Measurement"
      },
      {
        "submissionValue": "CKMMCK",
        "conceptId": "C79442",
        "decode": "Creatine Kinase MM to Total Creatine Kinase Ratio Measurement"
      },
      {
        "submissionValue": "CKMT1CK",
        "conceptId": "C147319",
        "decode": "Macromolecular Type 1 Creatine Kinase to Total Creatine Kinase Ratio Measurement"
      },
      {
        "submissionValue": "CKMT2CK",
        "conceptId": "C147320",
        "decode": "Macromolecular Type 2 Creatine Kinase to Total Creatine Kinase Ratio Measurement"
      },
      {
        "submissionValue": "CL",
        "conceptId": "C64495",
        "decode": "Chloride Measurement"
      },
      {
        "submissionValue": "CLARITY",
        "conceptId": "C96594",
        "decode": "Clarity Measurement"
      },
      {
        "submissionValue": "CLCLR",
        "conceptId": "C106509",
        "decode": "Chloride Clearance Measurement"
      },
      {
        "submissionValue": "CLCREAT",
        "conceptId": "C79440",
        "decode": "Chloride to Creatinine Ratio Measurement"
      },
      {
        "submissionValue": "CLCTONN",
        "conceptId": "C74848",
        "decode": "Calcitonin Measurement"
      },
      {
        "submissionValue": "CLCTRIOL",
        "conceptId": "C74849",
        "decode": "Calcitriol Measurement"
      },
      {
        "submissionValue": "CLEPNSQE",
        "conceptId": "C135405",
        "decode": "Columnar Epithelial Cells to Non-Squamous Epithelial Cells Ratio Measurement"
      },
      {
        "submissionValue": "CLEXR",
        "conceptId": "C150816",
        "decode": "Chloride Excretion Rate"
      },
      {
        "submissionValue": "CLNZPM",
        "conceptId": "C139082",
        "decode": "Clonazepam Measurement"
      },
      {
        "submissionValue": "CLOBAZAM",
        "conceptId": "C184613",
        "decode": "Clobazam Measurement"
      },
      {
        "submissionValue": "CLOSTBL",
        "conceptId": "C184581",
        "decode": "Clostebol Measurement"
      },
      {
        "submissionValue": "CLOTFAA",
        "conceptId": "C214694",
        "decode": "Clot Formation Alpha Angle Measurement"
      },
      {
        "submissionValue": "CLOTFM",
        "conceptId": "C214688",
        "decode": "Clot Firmness Measurement"
      },
      {
        "submissionValue": "CLOTFMMX",
        "conceptId": "C214691",
        "decode": "Maximum Clot Firmness Measurement"
      },
      {
        "submissionValue": "CLOTFTIM",
        "conceptId": "C214689",
        "decode": "Clot Formation Time Measurement"
      },
      {
        "submissionValue": "CLOTITIM",
        "conceptId": "C214690",
        "decode": "Clot Initiation Time Measurement"
      },
      {
        "submissionValue": "CLOTLYIX",
        "conceptId": "C214692",
        "decode": "Clot Lysis Index"
      },
      {
        "submissionValue": "CLOTLYMX",
        "conceptId": "C214693",
        "decode": "Maximum Clot Lysis Measurement"
      },
      {
        "submissionValue": "CLOTRTC",
        "conceptId": "C181438",
        "decode": "Qualitative Clot Retraction Measurement"
      },
      {
        "submissionValue": "CLOTRTCT",
        "conceptId": "C181437",
        "decode": "Clot Retraction Time Measurement"
      },
      {
        "submissionValue": "CLPHTRMN",
        "conceptId": "C184580",
        "decode": "Chlorphentermine Measurement"
      },
      {
        "submissionValue": "CLRDZPXD",
        "conceptId": "C75371",
        "decode": "Chlordiazepoxide Measurement"
      },
      {
        "submissionValue": "CLRZPT",
        "conceptId": "C139077",
        "decode": "Clorazepate Measurement"
      },
      {
        "submissionValue": "CLT",
        "conceptId": "C187805",
        "decode": "Euglobulin Clot Lysis Time"
      },
      {
        "submissionValue": "CLUECE",
        "conceptId": "C102261",
        "decode": "Clue Cell Count"
      },
      {
        "submissionValue": "CLZPMAOM",
        "conceptId": "C186031",
        "decode": "Clonazepam and/or Metabolites Measurement"
      },
      {
        "submissionValue": "CMONOX",
        "conceptId": "C139084",
        "decode": "Carbon Monoxide Measurement"
      },
      {
        "submissionValue": "CMPK2",
        "conceptId": "C163426",
        "decode": "Cytidine-Uridine Monophosphate Kinase 2 Measurement"
      },
      {
        "submissionValue": "CNTF",
        "conceptId": "C199890",
        "decode": "Ciliary Neurotrophic Factor Measurement"
      },
      {
        "submissionValue": "CO2",
        "conceptId": "C64545",
        "decode": "Carbon Dioxide Measurement"
      },
      {
        "submissionValue": "COAGIDX",
        "conceptId": "C112239",
        "decode": "Coagulation Index Measurement"
      },
      {
        "submissionValue": "COCAAOM",
        "conceptId": "C172490",
        "decode": "Cocaine And/Or Metabolites Measurement"
      },
      {
        "submissionValue": "COCAETH",
        "conceptId": "C156510",
        "decode": "Cocaethylene Measurement"
      },
      {
        "submissionValue": "COCAINE",
        "conceptId": "C74690",
        "decode": "Cocaine Measurement"
      },
      {
        "submissionValue": "COCAM",
        "conceptId": "C172491",
        "decode": "Cocaine Metabolites Measurement"
      },
      {
        "submissionValue": "COCBNZEC",
        "conceptId": "C142274",
        "decode": "Cocaine, Benzoylecgonine, and/or Ecgonine Measurement"
      },
      {
        "submissionValue": "CODEINE",
        "conceptId": "C74877",
        "decode": "Codeine Measurement"
      },
      {
        "submissionValue": "COL4",
        "conceptId": "C103383",
        "decode": "Collagen Type IV Measurement"
      },
      {
        "submissionValue": "COLOR",
        "conceptId": "C64546",
        "decode": "Color Assessment"
      },
      {
        "submissionValue": "COMP",
        "conceptId": "C111145",
        "decode": "Cartilage Oligomeric Matrix Protein Measurement"
      },
      {
        "submissionValue": "CONDUCTU",
        "conceptId": "C102282",
        "decode": "Urine Conductivity"
      },
      {
        "submissionValue": "CONSIST",
        "conceptId": "C95110",
        "decode": "Consistency"
      },
      {
        "submissionValue": "COPEP",
        "conceptId": "C127612",
        "decode": "Copeptin Measurement"
      },
      {
        "submissionValue": "COPPER",
        "conceptId": "C111161",
        "decode": "Copper Measurement"
      },
      {
        "submissionValue": "COQ10",
        "conceptId": "C147321",
        "decode": "Ubiquinone 10 Measurement"
      },
      {
        "submissionValue": "CORCREAT",
        "conceptId": "C106512",
        "decode": "Cortisol to Creatinine Ratio Measurement"
      },
      {
        "submissionValue": "CORTFR",
        "conceptId": "C88113",
        "decode": "Free Cortisol Measurement"
      },
      {
        "submissionValue": "CORTISOL",
        "conceptId": "C74781",
        "decode": "Cortisol Measurement"
      },
      {
        "submissionValue": "CORTOLA",
        "conceptId": "C186032",
        "decode": "Alpha Cortol Measurement"
      },
      {
        "submissionValue": "CORTOLNA",
        "conceptId": "C186033",
        "decode": "Alpha Cortolone Measurement"
      },
      {
        "submissionValue": "COTININE",
        "conceptId": "C92249",
        "decode": "Cotinine Measurement"
      },
      {
        "submissionValue": "COTNNFR",
        "conceptId": "C209580",
        "decode": "Free Cotinine Measurement"
      },
      {
        "submissionValue": "CPA9HNE",
        "conceptId": "C221570",
        "decode": "Human Neutrophil Elastase-Degraded Calprotectin Neo-epitope CPa9-HNE Measurement"
      },
      {
        "submissionValue": "CPB2",
        "conceptId": "C165953",
        "decode": "Carboxypeptidase B2 Measurement"
      },
      {
        "submissionValue": "CPEPCRT",
        "conceptId": "C150837",
        "decode": "C-peptide to Creatinine Ratio Measurement"
      },
      {
        "submissionValue": "CPEPEXR",
        "conceptId": "C187796",
        "decode": "C-Peptide Excretion Rate"
      },
      {
        "submissionValue": "CPEPTIDE",
        "conceptId": "C74736",
        "decode": "C-peptide Measurement"
      },
      {
        "submissionValue": "CRBMZPN",
        "conceptId": "C147322",
        "decode": "Carbamazepine Measurement"
      },
      {
        "submissionValue": "CREAT",
        "conceptId": "C64547",
        "decode": "Creatinine Measurement"
      },
      {
        "submissionValue": "CREATCLR",
        "conceptId": "C25747",
        "decode": "Creatinine Clearance"
      },
      {
        "submissionValue": "CREATEXR",
        "conceptId": "C150817",
        "decode": "Creatinine Excretion Rate"
      },
      {
        "submissionValue": "CRENCE",
        "conceptId": "C74703",
        "decode": "Crenated Cell Measurement"
      },
      {
        "submissionValue": "CRH",
        "conceptId": "C74851",
        "decode": "Corticotropin Releasing Hormone Measurement"
      },
      {
        "submissionValue": "CRLPLSMN",
        "conceptId": "C100432",
        "decode": "Ceruloplasmin Measurement"
      },
      {
        "submissionValue": "CRNTESTR",
        "conceptId": "C147323",
        "decode": "Carnitine Ester Measurement"
      },
      {
        "submissionValue": "CROTNALD",
        "conceptId": "C204648",
        "decode": "Crotonaldehyde Measurement"
      },
      {
        "submissionValue": "CRP",
        "conceptId": "C64548",
        "decode": "C-Reactive Protein Measurement"
      },
      {
        "submissionValue": "CRPM",
        "conceptId": "C221561",
        "decode": "C-Reactive Protein Metabolite Measurement"
      },
      {
        "submissionValue": "CRSPRDL",
        "conceptId": "C184611",
        "decode": "Carisoprodol Measurement"
      },
      {
        "submissionValue": "CRTCLRBS",
        "conceptId": "C147324",
        "decode": "Creatinine Clearance Adjusted for BSA"
      },
      {
        "submissionValue": "CRTCLRE",
        "conceptId": "C150847",
        "decode": "Estimated Creatinine Clearance"
      },
      {
        "submissionValue": "CRTCREAT",
        "conceptId": "C106511",
        "decode": "Corticosterone to Creatinine Ratio Measurement"
      },
      {
        "submissionValue": "CRTFREXR",
        "conceptId": "C163427",
        "decode": "Free Cortisol Excretion Rate"
      },
      {
        "submissionValue": "CRTN",
        "conceptId": "C186034",
        "decode": "Carotene Measurement"
      },
      {
        "submissionValue": "CRTRONE",
        "conceptId": "C79434",
        "decode": "Corticosterone Measurement"
      },
      {
        "submissionValue": "CRYGLBSR",
        "conceptId": "C147325",
        "decode": "Cryoglobulin Volume to Serum Volume Ratio Measurement"
      },
      {
        "submissionValue": "CRYOFBRN",
        "conceptId": "C147326",
        "decode": "Cryofibrinogen Measurement"
      },
      {
        "submissionValue": "CRYOGLBN",
        "conceptId": "C111164",
        "decode": "Cryoglobulin Measurement"
      },
      {
        "submissionValue": "CRYSTALS",
        "conceptId": "C213923",
        "decode": "Crystal Absent Indicator"
      },
      {
        "submissionValue": "CSBACT",
        "conceptId": "C74762",
        "decode": "Bacterial Cast Measurement"
      },
      {
        "submissionValue": "CSBROAD",
        "conceptId": "C96588",
        "decode": "Broad Casts Measurement"
      },
      {
        "submissionValue": "CSCELL",
        "conceptId": "C74764",
        "decode": "Cellular Cast Measurement"
      },
      {
        "submissionValue": "CSCYL",
        "conceptId": "C150838",
        "decode": "Cylindroid Cast Measurement"
      },
      {
        "submissionValue": "CSEPI",
        "conceptId": "C74779",
        "decode": "Epithelial-Cast Measurement"
      },
      {
        "submissionValue": "CSEPI846",
        "conceptId": "C112220",
        "decode": "Aggrecan Chondroitin Sulfate Epitope 846 Measurement"
      },
      {
        "submissionValue": "CSEPIR",
        "conceptId": "C174229",
        "decode": "Renal Epithelial Casts Measurement"
      },
      {
        "submissionValue": "CSEPIRT",
        "conceptId": "C174292",
        "decode": "Renal Tubular Epithelial Casts Measurement"
      },
      {
        "submissionValue": "CSFAT",
        "conceptId": "C74766",
        "decode": "Fatty Cast Measurement"
      },
      {
        "submissionValue": "CSFIGIDX",
        "conceptId": "C154735",
        "decode": "IgG Index"
      },
      {
        "submissionValue": "CSGRAN",
        "conceptId": "C74768",
        "decode": "Granular Cast Measurement"
      },
      {
        "submissionValue": "CSGRANC",
        "conceptId": "C74765",
        "decode": "Coarse Granular Cast Measurement"
      },
      {
        "submissionValue": "CSGRANF",
        "conceptId": "C74769",
        "decode": "Granular Fine Cast Measurement"
      },
      {
        "submissionValue": "CSHYAL",
        "conceptId": "C74770",
        "decode": "Hyaline Cast Measurement"
      },
      {
        "submissionValue": "CSHYGR",
        "conceptId": "C174305",
        "decode": "Hyalogranular Casts"
      },
      {
        "submissionValue": "CSMIX",
        "conceptId": "C74771",
        "decode": "Mixed Cast Count"
      },
      {
        "submissionValue": "CSPATH",
        "conceptId": "C186035",
        "decode": "Pathologic Cast Measurement"
      },
      {
        "submissionValue": "CSPIG",
        "conceptId": "C189518",
        "decode": "Pigment Cast Measurement"
      },
      {
        "submissionValue": "CSRBC",
        "conceptId": "C74772",
        "decode": "Red Blood Cell Cast Measurement"
      },
      {
        "submissionValue": "CSUNCLA",
        "conceptId": "C74776",
        "decode": "Unclassified Cast Measurement"
      },
      {
        "submissionValue": "CSWAX",
        "conceptId": "C74777",
        "decode": "Waxy Cell Cast Measurement"
      },
      {
        "submissionValue": "CSWBC",
        "conceptId": "C74778",
        "decode": "White Blood Cell Cast Measurement"
      },
      {
        "submissionValue": "CTC",
        "conceptId": "C96593",
        "decode": "Circulating Tumor Cell Count"
      },
      {
        "submissionValue": "CTCAPOP",
        "conceptId": "C186036",
        "decode": "Apoptotic Circulating Tumor Cell Count"
      },
      {
        "submissionValue": "CTCHLMN",
        "conceptId": "C186037",
        "decode": "Catecholamine Measurement"
      },
      {
        "submissionValue": "CTCTRAD",
        "conceptId": "C186038",
        "decode": "Traditional Circulating Tumor Cell Count"
      },
      {
        "submissionValue": "CTGF",
        "conceptId": "C189504",
        "decode": "Connective Tissue Growth Factor Measurement"
      },
      {
        "submissionValue": "CTLCREAT",
        "conceptId": "C189500",
        "decode": "Citrulline to Creatinine Ratio Measurement"
      },
      {
        "submissionValue": "CTLPRM",
        "conceptId": "C147327",
        "decode": "Citalopram Measurement"
      },
      {
        "submissionValue": "CTLPRMD",
        "conceptId": "C189494",
        "decode": "Desmethylcitalopram Measurement"
      },
      {
        "submissionValue": "CTLPRMDD",
        "conceptId": "C189655",
        "decode": "Di-Desmethylcitalopram Measurement"
      },
      {
        "submissionValue": "CTNGLC",
        "conceptId": "C209581",
        "decode": "Cotinine Glucuronide Measurement"
      },
      {
        "submissionValue": "CTOT",
        "conceptId": "C80160",
        "decode": "Complement Measurement"
      },
      {
        "submissionValue": "CTSD",
        "conceptId": "C199917",
        "decode": "Cathepsin D Measurement"
      },
      {
        "submissionValue": "CTXI",
        "conceptId": "C82038",
        "decode": "Type I Collagen C-Telopeptide Measurement"
      },
      {
        "submissionValue": "CTXIB",
        "conceptId": "C187792",
        "decode": "Beta Isomer of C-Terminal Telopeptide of Type I Collagen Measurement"
      },
      {
        "submissionValue": "CTXICRT",
        "conceptId": "C127613",
        "decode": "Type I Collagen C-Telopeptide to Creatinine Ratio Measurement"
      },
      {
        "submissionValue": "CTXII",
        "conceptId": "C82040",
        "decode": "Type II Collagen C-Telopeptide Measurement"
      },
      {
        "submissionValue": "CTXIICRT",
        "conceptId": "C122113",
        "decode": "Type II Collagen C-Telopeptides to Creatinine Ratio Measurement"
      },
      {
        "submissionValue": "CTXIII",
        "conceptId": "C221572",
        "decode": "Type III Collagen Cross-Linked C-Telopeptide Measurement"
      },
      {
        "submissionValue": "CX3CL1",
        "conceptId": "C161361",
        "decode": "Chemokine (C-X3-C Motif) Ligand 1 Measurement"
      },
      {
        "submissionValue": "CXCL1",
        "conceptId": "C128952",
        "decode": "Chemokine (C-X-C Motif) Ligand 1 Measurement"
      },
      {
        "submissionValue": "CXCL10",
        "conceptId": "C112238",
        "decode": "Chemokine (C-X-C Motif) Ligand 10 Measurement"
      },
      {
        "submissionValue": "CXCL11",
        "conceptId": "C161360",
        "decode": "Chemokine (C-X-C Motif) Ligand 11 Measurement"
      },
      {
        "submissionValue": "CXCL12",
        "conceptId": "C165954",
        "decode": "Chemokine (C-X-C Motif) Ligand 12 Measurement"
      },
      {
        "submissionValue": "CXCL13",
        "conceptId": "C147328",
        "decode": "Chemokine (C-X-C Motif) Ligand 13 Measurement"
      },
      {
        "submissionValue": "CXCL2",
        "conceptId": "C186039",
        "decode": "Chemokine (C-X-C Motif) Ligand 2 Measurement"
      },
      {
        "submissionValue": "CXCL3",
        "conceptId": "C147329",
        "decode": "Chemokine (C-X-C Motif) Ligand 3 Measurement"
      },
      {
        "submissionValue": "CXCL4",
        "conceptId": "C147330",
        "decode": "Chemokine (C-X-C Motif) Ligand 4 Measurement"
      },
      {
        "submissionValue": "CXCL6",
        "conceptId": "C130159",
        "decode": "Chemokine (C-X-C Motif) Ligand 6 Measurement"
      },
      {
        "submissionValue": "CXCL7",
        "conceptId": "C165955",
        "decode": "Chemokine (C-X-C Motif) Ligand 7 Measurement"
      },
      {
        "submissionValue": "CXCL9",
        "conceptId": "C165956",
        "decode": "Chemokine (C-X-C Motif) Ligand 9 Measurement"
      },
      {
        "submissionValue": "CXCR3",
        "conceptId": "C100431",
        "decode": "Chemokine Receptor CXCR3 Measurement"
      },
      {
        "submissionValue": "CXCR4",
        "conceptId": "C187797",
        "decode": "C-X-C Chemokine Receptor Type 4 Measurement"
      },
      {
        "submissionValue": "CYAMMBIU",
        "conceptId": "C105590",
        "decode": "Ammonium Biurate Crystals Measurement"
      },
      {
        "submissionValue": "CYAMMOX",
        "conceptId": "C213924",
        "decode": "Ammonium Oxalate Crystal Measurement"
      },
      {
        "submissionValue": "CYAMORPH",
        "conceptId": "C74665",
        "decode": "Amorphous Crystal Measurement"
      },
      {
        "submissionValue": "CYAMPPH",
        "conceptId": "C92243",
        "decode": "Amorphous Phosphate Crystals Measurement"
      },
      {
        "submissionValue": "CYAMPURT",
        "conceptId": "C92244",
        "decode": "Amorphous Urate Crystals Measurement"
      },
      {
        "submissionValue": "CYBILI",
        "conceptId": "C74668",
        "decode": "Bilirubin Crystal Measurement"
      },
      {
        "submissionValue": "CYCACAR",
        "conceptId": "C74669",
        "decode": "Calcium Carbonate Crystal Measurement"
      },
      {
        "submissionValue": "CYCAOXA",
        "conceptId": "C74670",
        "decode": "Calcium Oxalate Crystal Measurement"
      },
      {
        "submissionValue": "CYCAPHOS",
        "conceptId": "C74671",
        "decode": "Calcium Phosphate Crystal Measurement"
      },
      {
        "submissionValue": "CYCASULF",
        "conceptId": "C124340",
        "decode": "Calcium Sulfate Crystals Measurement"
      },
      {
        "submissionValue": "CYCHOL",
        "conceptId": "C74672",
        "decode": "Cholesterol Crystal Measurement"
      },
      {
        "submissionValue": "CYCHRLDN",
        "conceptId": "C209582",
        "decode": "Charcot-Leyden Crystal Measurement"
      },
      {
        "submissionValue": "CYCYSTIN",
        "conceptId": "C74674",
        "decode": "Cystine Crystal Measurement"
      },
      {
        "submissionValue": "CYDCPHOS",
        "conceptId": "C135407",
        "decode": "Dicalcium Phosphate Crystals Measurement"
      },
      {
        "submissionValue": "CYDRUG",
        "conceptId": "C156533",
        "decode": "Drug Crystal Measurement"
      },
      {
        "submissionValue": "CYEMA2",
        "conceptId": "C209583",
        "decode": "2-Cyanoethyl Mercapturic Acid Measurement"
      },
      {
        "submissionValue": "CYEMA2CY",
        "conceptId": "C209584",
        "decode": "2-Cyanoethyl Mercapturic Acid Cysteine Measurement"
      },
      {
        "submissionValue": "CYFRA18",
        "conceptId": "C130160",
        "decode": "Cytokeratin 18 Fragment Measurement"
      },
      {
        "submissionValue": "CYFRA211",
        "conceptId": "C106514",
        "decode": "Cytokeratin 19 Fragment 21-1 Measurement"
      },
      {
        "submissionValue": "CYHGBC",
        "conceptId": "C112288",
        "decode": "Hemoglobin C Crystals Measurement"
      },
      {
        "submissionValue": "CYHIPPAC",
        "conceptId": "C74754",
        "decode": "Hippuric Acid Crystal Measurement"
      },
      {
        "submissionValue": "CYLEUC",
        "conceptId": "C74680",
        "decode": "Leucine Crystal Measurement"
      },
      {
        "submissionValue": "CYMSU",
        "conceptId": "C74681",
        "decode": "Monosodium Urate Crystal Measurement"
      },
      {
        "submissionValue": "CYP2A6",
        "conceptId": "C209585",
        "decode": "Cytochrome P450 2A6 Measurement"
      },
      {
        "submissionValue": "CYP2C9",
        "conceptId": "C161355",
        "decode": "Cytochrome P450 2C9 Measurement"
      },
      {
        "submissionValue": "CYPHOS",
        "conceptId": "C174304",
        "decode": "Phosphate Crystals Measurement"
      },
      {
        "submissionValue": "CYSCREAT",
        "conceptId": "C106513",
        "decode": "Cystatin C to Creatinine Ratio Measurement"
      },
      {
        "submissionValue": "CYSLTR1",
        "conceptId": "C189517",
        "decode": "Cysteinyl Leukotriene Receptor 1 Measurement"
      },
      {
        "submissionValue": "CYSTARCH",
        "conceptId": "C81951",
        "decode": "Starch Crystal Measurement"
      },
      {
        "submissionValue": "CYSTATB",
        "conceptId": "C199920",
        "decode": "Cystatin B Measurement"
      },
      {
        "submissionValue": "CYSTATC",
        "conceptId": "C92290",
        "decode": "Cystatin C Measurement"
      },
      {
        "submissionValue": "CYSTEINE",
        "conceptId": "C172518",
        "decode": "Cysteine Measurement"
      },
      {
        "submissionValue": "CYSTHION",
        "conceptId": "C147331",
        "decode": "Cystathionine Measurement"
      },
      {
        "submissionValue": "CYSTINE",
        "conceptId": "C105441",
        "decode": "Cystine Measurement"
      },
      {
        "submissionValue": "CYSULFA",
        "conceptId": "C74755",
        "decode": "Sulfa Crystal Measurement"
      },
      {
        "submissionValue": "CYTRPHOS",
        "conceptId": "C74756",
        "decode": "Triple Phosphate Crystal Measurement"
      },
      {
        "submissionValue": "CYTYRO",
        "conceptId": "C74683",
        "decode": "Tyrosine Crystal Measurement"
      },
      {
        "submissionValue": "CYUNCLA",
        "conceptId": "C74757",
        "decode": "Unclassified Crystal Measurement"
      },
      {
        "submissionValue": "CYURIAC",
        "conceptId": "C74684",
        "decode": "Uric Acid Crystal Measurement"
      },
      {
        "submissionValue": "DAGLYCRL",
        "conceptId": "C225599",
        "decode": "Diacylglycerol Measurement"
      },
      {
        "submissionValue": "DALA",
        "conceptId": "C156537",
        "decode": "Delta Aminolevulinate Measurement"
      },
      {
        "submissionValue": "DALACRT",
        "conceptId": "C156538",
        "decode": "Delta Aminolevulinate to Creatinine Ratio Measurement"
      },
      {
        "submissionValue": "DCA",
        "conceptId": "C172500",
        "decode": "Deoxycholate Measurement"
      },
      {
        "submissionValue": "DCCARNIT",
        "conceptId": "C156536",
        "decode": "Decanoylcarnitine Measurement"
      },
      {
        "submissionValue": "DDIMER",
        "conceptId": "C82621",
        "decode": "D-Dimer Measurement"
      },
      {
        "submissionValue": "DDNAIGAB",
        "conceptId": "C154769",
        "decode": "Anti-Double Stranded DNA IgG Measurement"
      },
      {
        "submissionValue": "DDX58",
        "conceptId": "C163428",
        "decode": "DEAD Box Protein 58 Measurement"
      },
      {
        "submissionValue": "DECORIN",
        "conceptId": "C172512",
        "decode": "Decorin Measurement"
      },
      {
        "submissionValue": "DENSITY",
        "conceptId": "C45781",
        "decode": "Density"
      },
      {
        "submissionValue": "DESIPRMN",
        "conceptId": "C186040",
        "decode": "Desipramine Measurement"
      },
      {
        "submissionValue": "DESMSN",
        "conceptId": "C209586",
        "decode": "Desmosine Measurement"
      },
      {
        "submissionValue": "DETHPRPN",
        "conceptId": "C184614",
        "decode": "Diethylpropion Measurement"
      },
      {
        "submissionValue": "DFI",
        "conceptId": "C135408",
        "decode": "DNA Fragmentation Index"
      },
      {
        "submissionValue": "DGNWBC",
        "conceptId": "C111190",
        "decode": "Degenerated Leukocyte Count"
      },
      {
        "submissionValue": "DHEA",
        "conceptId": "C74852",
        "decode": "Dehydroepiandrosterone Measurement"
      },
      {
        "submissionValue": "DHEAS",
        "conceptId": "C96629",
        "decode": "Sulfated DHEA Measurement"
      },
      {
        "submissionValue": "DHPG",
        "conceptId": "C101017",
        "decode": "3,4-Dihydroxyphenylglycol Measurement"
      },
      {
        "submissionValue": "DHT",
        "conceptId": "C74853",
        "decode": "Dihydrotestosterone Measurement"
      },
      {
        "submissionValue": "DHXPMA23",
        "conceptId": "C209587",
        "decode": "2,3-dihydroxypropyl Mercapturic Acid Measurement"
      },
      {
        "submissionValue": "DIHYDCDN",
        "conceptId": "C74878",
        "decode": "Dihydrocodeine Measurement"
      },
      {
        "submissionValue": "DKK1",
        "conceptId": "C165957",
        "decode": "Dickkopf WNT Signaling Path Inhibitor 1 Measurement"
      },
      {
        "submissionValue": "DMG",
        "conceptId": "C172519",
        "decode": "Dimethylglycine Measurement"
      },
      {
        "submissionValue": "DMTNN",
        "conceptId": "C184536",
        "decode": "N,N-Dimethyltryptamine Measurement"
      },
      {
        "submissionValue": "DNA",
        "conceptId": "C135409",
        "decode": "Deoxyribonucleic Acid Measurement"
      },
      {
        "submissionValue": "DNPSEPHD",
        "conceptId": "C174298",
        "decode": "D-Norpseudoephedrine Measurement"
      },
      {
        "submissionValue": "DOHLE",
        "conceptId": "C74610",
        "decode": "Dohle Body Measurement"
      },
      {
        "submissionValue": "DOPAC",
        "conceptId": "C103345",
        "decode": "3,4-Dihydroxyphenylacetic Acid Measurement"
      },
      {
        "submissionValue": "DOPAMEXR",
        "conceptId": "C163429",
        "decode": "Dopamine Excretion Rate"
      },
      {
        "submissionValue": "DOPAMINE",
        "conceptId": "C74854",
        "decode": "Dopamine Measurement"
      },
      {
        "submissionValue": "DOXMTST",
        "conceptId": "C184582",
        "decode": "Desoxymethyltestosterone Measurement"
      },
      {
        "submissionValue": "DOXPN",
        "conceptId": "C191285",
        "decode": "Doxepin Measurement"
      },
      {
        "submissionValue": "DOXPNAOM",
        "conceptId": "C186041",
        "decode": "Doxepin And/Or Metabolites Measurement"
      },
      {
        "submissionValue": "DPD",
        "conceptId": "C79443",
        "decode": "Deoxypyridinoline Measurement"
      },
      {
        "submissionValue": "DPDCREAT",
        "conceptId": "C79444",
        "decode": "Deoxypyridinoline to Creatinine Ratio Measurement"
      },
      {
        "submissionValue": "DPHNOXLT",
        "conceptId": "C184569",
        "decode": "Diphenoxylate Measurement"
      },
      {
        "submissionValue": "DPIPANON",
        "conceptId": "C184540",
        "decode": "Dipipanone Measurement"
      },
      {
        "submissionValue": "DPPIV",
        "conceptId": "C177992",
        "decode": "Dipeptidyl Peptidase-4 Measurement"
      },
      {
        "submissionValue": "DRSTNLN",
        "conceptId": "C184583",
        "decode": "Drostanolone Measurement"
      },
      {
        "submissionValue": "DRUGSCR",
        "conceptId": "C78139",
        "decode": "Drug Test"
      },
      {
        "submissionValue": "DRVTSCPD",
        "conceptId": "C161373",
        "decode": "dRVVT Screen to Confirm Percent Difference"
      },
      {
        "submissionValue": "DRVVT",
        "conceptId": "C96696",
        "decode": "Dilute Russell's Viper Venom Time Measurement"
      },
      {
        "submissionValue": "DRVVTRT",
        "conceptId": "C103386",
        "decode": "Dilute Russell's Viper Venom Time to Control Ratio Measurement"
      },
      {
        "submissionValue": "DRVVTSCR",
        "conceptId": "C163430",
        "decode": "Dilute Russell's Viper Venom Time to Confirm Ratio Measurement"
      },
      {
        "submissionValue": "DSVLFXN",
        "conceptId": "C147333",
        "decode": "Desvenlafaxine Measurement"
      },
      {
        "submissionValue": "DTPACLR",
        "conceptId": "C100441",
        "decode": "Diethylene Triamine Pentaacetic Acid Clearance"
      },
      {
        "submissionValue": "DULOXTN",
        "conceptId": "C187798",
        "decode": "Duloxetine Measurement"
      },
      {
        "submissionValue": "DUPAN2",
        "conceptId": "C201431",
        "decode": "Duke Pancreatic Monoclonal Antigen Type 2 Measurement"
      },
      {
        "submissionValue": "DXCSD11",
        "conceptId": "C186042",
        "decode": "11-Deoxycorticosteroid Measurement"
      },
      {
        "submissionValue": "DXCSL11",
        "conceptId": "C186043",
        "decode": "11-Deoxycortisol Measurement"
      },
      {
        "submissionValue": "DXCSL21",
        "conceptId": "C186044",
        "decode": "21-Deoxycortisol Measurement"
      },
      {
        "submissionValue": "DXCSN11",
        "conceptId": "C186045",
        "decode": "11-Deoxycorticosterone Measurement"
      },
      {
        "submissionValue": "DXCSN21",
        "conceptId": "C186046",
        "decode": "21-Deoxycorticosterone Measurement"
      },
      {
        "submissionValue": "DYSTPN",
        "conceptId": "C209442",
        "decode": "Dystrophin Measurement"
      },
      {
        "submissionValue": "DYSTPNAC",
        "conceptId": "C209588",
        "decode": "Dystrophin Actual to Control Ratio Measurement"
      },
      {
        "submissionValue": "DZPM",
        "conceptId": "C75372",
        "decode": "Diazepam Measurement"
      },
      {
        "submissionValue": "E1S",
        "conceptId": "C163431",
        "decode": "Estrone Sulfate Measurement"
      },
      {
        "submissionValue": "EAGLUC",
        "conceptId": "C142275",
        "decode": "Estimated Average Glucose Measurement"
      },
      {
        "submissionValue": "ECCENTCY",
        "conceptId": "C96598",
        "decode": "Eccentrocyte Count"
      },
      {
        "submissionValue": "ECP",
        "conceptId": "C209589",
        "decode": "Eosinophil Cationic Protein Measurement"
      },
      {
        "submissionValue": "ECT",
        "conceptId": "C100422",
        "decode": "Ecarin Clotting Time Measurement"
      },
      {
        "submissionValue": "EDDP",
        "conceptId": "C75353",
        "decode": "EDDP Measurement"
      },
      {
        "submissionValue": "EDN",
        "conceptId": "C184644",
        "decode": "Eosinophil-Derived Neurotoxin Measurement"
      },
      {
        "submissionValue": "EDTACLR",
        "conceptId": "C100440",
        "decode": "EDTA Clearance"
      },
      {
        "submissionValue": "EGF",
        "conceptId": "C82009",
        "decode": "Epidermal Growth Factor Measurement"
      },
      {
        "submissionValue": "EGFR",
        "conceptId": "C112273",
        "decode": "Epidermal Growth Factor Receptor Measurement"
      },
      {
        "submissionValue": "EGFRFR",
        "conceptId": "C181452",
        "decode": "Free Epidermal Growth Factor Receptor Measurement"
      },
      {
        "submissionValue": "ELA1",
        "conceptId": "C82028",
        "decode": "Pancreatic Elastase Measurement"
      },
      {
        "submissionValue": "ELA1PMN",
        "conceptId": "C82029",
        "decode": "Polymorphonuclear Pancreatic Elastase Measurement"
      },
      {
        "submissionValue": "ELA2",
        "conceptId": "C82026",
        "decode": "Neutrophil Elastase Measurement"
      },
      {
        "submissionValue": "ELA2PMN",
        "conceptId": "C82027",
        "decode": "Polymorphonuclear Neutrophil Elastase Measurement"
      },
      {
        "submissionValue": "ELASTIN",
        "conceptId": "C221571",
        "decode": "Elastin Measurement"
      },
      {
        "submissionValue": "ELLIPCY",
        "conceptId": "C64549",
        "decode": "Elliptocyte Count"
      },
      {
        "submissionValue": "ELP3",
        "conceptId": "C221576",
        "decode": "Elongator Acetyltransferase Complex Subunit 3 Measurement"
      },
      {
        "submissionValue": "EMA",
        "conceptId": "C184555",
        "decode": "Ethylamphetamine Measurement"
      },
      {
        "submissionValue": "ENA78",
        "conceptId": "C82010",
        "decode": "Epithelial Neutrophil-Activating Peptide 78 Measurement"
      },
      {
        "submissionValue": "ENDOSTN",
        "conceptId": "C172509",
        "decode": "Endostatin Measurement"
      },
      {
        "submissionValue": "ENDOTH1",
        "conceptId": "C82008",
        "decode": "Endothelin-1 Measurement"
      },
      {
        "submissionValue": "ENDOTH3",
        "conceptId": "C187800",
        "decode": "Endothelin-3 Measurement"
      },
      {
        "submissionValue": "ENRAGE",
        "conceptId": "C82011",
        "decode": "Extracell Newly Ident RAGE Bind Protein Measurement"
      },
      {
        "submissionValue": "EOS",
        "conceptId": "C64550",
        "decode": "Eosinophil Count"
      },
      {
        "submissionValue": "EOSB",
        "conceptId": "C114216",
        "decode": "Eosinophil Band Form Count"
      },
      {
        "submissionValue": "EOSBLE",
        "conceptId": "C114217",
        "decode": "Eosinophil Band Form to Leukocyte Ratio"
      },
      {
        "submissionValue": "EOSCE",
        "conceptId": "C98720",
        "decode": "Eosinophils to Total Cell Ratio Measurement"
      },
      {
        "submissionValue": "EOSIM",
        "conceptId": "C96673",
        "decode": "Immature Eosinophil Count"
      },
      {
        "submissionValue": "EOSIMLE",
        "conceptId": "C96674",
        "decode": "Immature Eosinophil to Leukocyte Ratio Measurement"
      },
      {
        "submissionValue": "EOSLE",
        "conceptId": "C64604",
        "decode": "Eosinophil to Leukocyte Ratio"
      },
      {
        "submissionValue": "EOSMM",
        "conceptId": "C84819",
        "decode": "Eosinophilic Metamyelocyte Count"
      },
      {
        "submissionValue": "EOSMYL",
        "conceptId": "C84821",
        "decode": "Eosinophilic Myelocyte Count"
      },
      {
        "submissionValue": "EOSMYLLY",
        "conceptId": "C181449",
        "decode": "Eosinophilic Myelocytes to Lymphocytes Ratio Measurement"
      },
      {
        "submissionValue": "EOSNSQE",
        "conceptId": "C135411",
        "decode": "Eosinophils to Non-Squamous Epithelial Cells Ratio Measurement"
      },
      {
        "submissionValue": "EOSPSD",
        "conceptId": "C165958",
        "decode": "Pseudo-Eosinophil Count"
      },
      {
        "submissionValue": "EOSPSDLE",
        "conceptId": "C165959",
        "decode": "Pseudo-Eosinophils to Leukocyte Ratio Measurement"
      },
      {
        "submissionValue": "EOSSG",
        "conceptId": "C135412",
        "decode": "Segmented Eosinophil Count"
      },
      {
        "submissionValue": "EOTAXIN1",
        "conceptId": "C81952",
        "decode": "Eotaxin-1 Measurement"
      },
      {
        "submissionValue": "EOTAXIN2",
        "conceptId": "C81953",
        "decode": "Eotaxin-2 Measurement"
      },
      {
        "submissionValue": "EOTAXIN3",
        "conceptId": "C81954",
        "decode": "Eotaxin-3 Measurement"
      },
      {
        "submissionValue": "EPHD",
        "conceptId": "C174296",
        "decode": "Ephedrine Measurement"
      },
      {
        "submissionValue": "EPIC",
        "conceptId": "C64605",
        "decode": "Epithelial Cell Count"
      },
      {
        "submissionValue": "EPICCE",
        "conceptId": "C130161",
        "decode": "Epithelial Cells to Total Cells Ratio Measurement"
      },
      {
        "submissionValue": "EPICCLMP",
        "conceptId": "C187801",
        "decode": "Epithelial Cell Clumps Measurement"
      },
      {
        "submissionValue": "EPIN",
        "conceptId": "C79445",
        "decode": "Epinephrine Measurement"
      },
      {
        "submissionValue": "EPINEXR",
        "conceptId": "C163433",
        "decode": "Epinephrine Excretion Rate"
      },
      {
        "submissionValue": "EPINSQCE",
        "conceptId": "C135413",
        "decode": "Non-Squamous Epithelial Cell Count"
      },
      {
        "submissionValue": "EPINSQE",
        "conceptId": "C135414",
        "decode": "Epithelial Cells to Non-Squamous Epithelial Cells Ratio Measurement"
      },
      {
        "submissionValue": "EPIRCE",
        "conceptId": "C170595",
        "decode": "Renal Epithelial Cells Measurement"
      },
      {
        "submissionValue": "EPIROCE",
        "conceptId": "C74698",
        "decode": "Round Epithelial Cell Count"
      },
      {
        "submissionValue": "EPISCECE",
        "conceptId": "C132366",
        "decode": "Squamous Epithelial Cells to Total Cells Ratio Measurement"
      },
      {
        "submissionValue": "EPISQCE",
        "conceptId": "C74773",
        "decode": "Squamous Epithelial Cell Count"
      },
      {
        "submissionValue": "EPISQTCE",
        "conceptId": "C74774",
        "decode": "Squamous Transitional Epithelial Cell Count"
      },
      {
        "submissionValue": "EPITCE",
        "conceptId": "C92251",
        "decode": "Transitional Epithelial Cells Measurement"
      },
      {
        "submissionValue": "EPITUCE",
        "conceptId": "C74775",
        "decode": "Tubular Epithelial Cell Count"
      },
      {
        "submissionValue": "EPO",
        "conceptId": "C74855",
        "decode": "Erythropoietin Measurement"
      },
      {
        "submissionValue": "EPSTI1",
        "conceptId": "C163434",
        "decode": "Epithelial Stromal Interaction 1 Measurement"
      },
      {
        "submissionValue": "ERCE",
        "conceptId": "C204637",
        "decode": "Erythroid Cell Count"
      },
      {
        "submissionValue": "ERCECE",
        "conceptId": "C154719",
        "decode": "Erythroid Cells to Total Cells Ratio Measurement"
      },
      {
        "submissionValue": "ERCEMIDX",
        "conceptId": "C135415",
        "decode": "Erythroid Maturation Index"
      },
      {
        "submissionValue": "ERCEMPOL",
        "conceptId": "C135416",
        "decode": "Erythroid Maturation Pool Count"
      },
      {
        "submissionValue": "ERCENC",
        "conceptId": "C154720",
        "decode": "Erythroid Cells to Nucleated Cells Ratio Measurement"
      },
      {
        "submissionValue": "ERCEPIDX",
        "conceptId": "C135417",
        "decode": "Erythroid Proliferation Index"
      },
      {
        "submissionValue": "ERCEPPOL",
        "conceptId": "C135418",
        "decode": "Erythroid Proliferation Pool Count"
      },
      {
        "submissionValue": "EREG",
        "conceptId": "C199891",
        "decode": "Epiregulin Measurement"
      },
      {
        "submissionValue": "ERFE",
        "conceptId": "C186047",
        "decode": "Erythroferrone Measurement"
      },
      {
        "submissionValue": "ERPCE",
        "conceptId": "C187802",
        "decode": "Erythroid Precursor Cell Count"
      },
      {
        "submissionValue": "ERPCECE",
        "conceptId": "C187803",
        "decode": "Erythroid Precursor Cells to Total Cells Ratio Measurement"
      },
      {
        "submissionValue": "ESCTLPRM",
        "conceptId": "C187804",
        "decode": "Escitalopram Measurement"
      },
      {
        "submissionValue": "ESELECT",
        "conceptId": "C154736",
        "decode": "E-selectin Measurement"
      },
      {
        "submissionValue": "ESELS",
        "conceptId": "C119273",
        "decode": "Soluble E-Selectin Measurement"
      },
      {
        "submissionValue": "ESR",
        "conceptId": "C74611",
        "decode": "Erythrocyte Sedimentation Rate Measurement"
      },
      {
        "submissionValue": "ESTAZLM",
        "conceptId": "C184615",
        "decode": "Estazolam Measurement"
      },
      {
        "submissionValue": "ESTFR",
        "conceptId": "C150842",
        "decode": "Free Estradiol Measurement"
      },
      {
        "submissionValue": "ESTFREST",
        "conceptId": "C150843",
        "decode": "Free Estradiol to Estradiol Ratio Measurement"
      },
      {
        "submissionValue": "ESTRCPT",
        "conceptId": "C112274",
        "decode": "Estrogen Receptor Measurement"
      },
      {
        "submissionValue": "ESTRDIOL",
        "conceptId": "C74782",
        "decode": "Estradiol Measurement"
      },
      {
        "submissionValue": "ESTRIOL",
        "conceptId": "C74856",
        "decode": "Estriol Measurement"
      },
      {
        "submissionValue": "ESTRIOLF",
        "conceptId": "C81963",
        "decode": "Free Estriol Measurement"
      },
      {
        "submissionValue": "ESTROGEN",
        "conceptId": "C147335",
        "decode": "Estrogen Measurement"
      },
      {
        "submissionValue": "ESTRONE",
        "conceptId": "C74857",
        "decode": "Estrone Measurement"
      },
      {
        "submissionValue": "ETG",
        "conceptId": "C170584",
        "decode": "Ethyl Glucuronide Measurement"
      },
      {
        "submissionValue": "ETGETS",
        "conceptId": "C170583",
        "decode": "Ethyl Glucuronide And Ethyl Sulfate Measurement"
      },
      {
        "submissionValue": "ETHANOL",
        "conceptId": "C74693",
        "decode": "Ethanol Measurement"
      },
      {
        "submissionValue": "ETHCHVNL",
        "conceptId": "C184616",
        "decode": "Ethchlorvynol Measurement"
      },
      {
        "submissionValue": "ETHESTNL",
        "conceptId": "C184584",
        "decode": "Ethylestrenol Measurement"
      },
      {
        "submissionValue": "ETHNMATE",
        "conceptId": "C184617",
        "decode": "Ethinamate Measurement"
      },
      {
        "submissionValue": "ETP",
        "conceptId": "C102266",
        "decode": "Endogenous Thrombin Potential Measurement"
      },
      {
        "submissionValue": "ETPAUC",
        "conceptId": "C102263",
        "decode": "Endogenous Thrombin Potential Area Under Curve Measurement"
      },
      {
        "submissionValue": "ETPLT",
        "conceptId": "C102264",
        "decode": "Endogenous Thrombin Potential Lag Time Measurement"
      },
      {
        "submissionValue": "ETPLTR",
        "conceptId": "C102265",
        "decode": "Endogenous Thrombin Potential Lag Time Relative Measurement"
      },
      {
        "submissionValue": "ETPPH",
        "conceptId": "C102267",
        "decode": "Endogenous Thrombin Potential Peak Height Measurement"
      },
      {
        "submissionValue": "ETPPHR",
        "conceptId": "C102268",
        "decode": "Endogenous Thrombin Potential Peak Height Relative Measurement"
      },
      {
        "submissionValue": "ETPTP",
        "conceptId": "C102269",
        "decode": "Endogenous Thrombin Potential Time to Peak Measurement"
      },
      {
        "submissionValue": "ETPTPR",
        "conceptId": "C102270",
        "decode": "Endogenous Thrombin Potential Time to Peak Relative Measurement"
      },
      {
        "submissionValue": "ETS",
        "conceptId": "C170585",
        "decode": "Ethyl Sulfate Measurement"
      },
      {
        "submissionValue": "EUDCA",
        "conceptId": "C176304",
        "decode": "Epimerized Ursodeoxycholate Measurement"
      },
      {
        "submissionValue": "EZOGABIN",
        "conceptId": "C184640",
        "decode": "Ezogabine Measurement"
      },
      {
        "submissionValue": "FABP1",
        "conceptId": "C82012",
        "decode": "Fatty Acid Binding Protein 1 Measurement"
      },
      {
        "submissionValue": "FABP3",
        "conceptId": "C106521",
        "decode": "Fatty Acid Binding Protein 3 Measurement"
      },
      {
        "submissionValue": "FABP4",
        "conceptId": "C199922",
        "decode": "Fatty Acid Binding Protein 4 Measurement"
      },
      {
        "submissionValue": "FACTII",
        "conceptId": "C96626",
        "decode": "Prothrombin Measurement"
      },
      {
        "submissionValue": "FACTIII",
        "conceptId": "C81959",
        "decode": "Factor III Measurement"
      },
      {
        "submissionValue": "FACTIX",
        "conceptId": "C98725",
        "decode": "Factor IX Measurement"
      },
      {
        "submissionValue": "FACTIXA",
        "conceptId": "C103395",
        "decode": "Factor IX Activity Measurement"
      },
      {
        "submissionValue": "FACTV",
        "conceptId": "C98726",
        "decode": "Factor V Measurement"
      },
      {
        "submissionValue": "FACTVA",
        "conceptId": "C103396",
        "decode": "Factor V Activity Measurement"
      },
      {
        "submissionValue": "FACTVII",
        "conceptId": "C81960",
        "decode": "Factor VII Measurement"
      },
      {
        "submissionValue": "FACTVIIA",
        "conceptId": "C103397",
        "decode": "Factor VII Activity Measurement"
      },
      {
        "submissionValue": "FACTVIII",
        "conceptId": "C81961",
        "decode": "Factor VIII Measurement"
      },
      {
        "submissionValue": "FACTVL",
        "conceptId": "C102271",
        "decode": "Factor V Leiden Measurement"
      },
      {
        "submissionValue": "FACTVW",
        "conceptId": "C98799",
        "decode": "von Willebrand Factor Measurement"
      },
      {
        "submissionValue": "FACTVWA",
        "conceptId": "C122117",
        "decode": "von Willebrand Factor Activity Measurement"
      },
      {
        "submissionValue": "FACTVWMU",
        "conceptId": "C147336",
        "decode": "von Willebrand Factor Multimers Measurement"
      },
      {
        "submissionValue": "FACTX",
        "conceptId": "C98727",
        "decode": "Factor X Measurement"
      },
      {
        "submissionValue": "FACTXA",
        "conceptId": "C122118",
        "decode": "Factor X Activity Measurement"
      },
      {
        "submissionValue": "FACTXI",
        "conceptId": "C163435",
        "decode": "Factor XI Measurement"
      },
      {
        "submissionValue": "FACTXIA",
        "conceptId": "C163436",
        "decode": "Factor XI Activity Measurement"
      },
      {
        "submissionValue": "FACTXII",
        "conceptId": "C163437",
        "decode": "Factor XII Measurement"
      },
      {
        "submissionValue": "FACTXIIA",
        "conceptId": "C163438",
        "decode": "Factor XII Activity Measurement"
      },
      {
        "submissionValue": "FACTXIII",
        "conceptId": "C112277",
        "decode": "Factor XIII Measurement"
      },
      {
        "submissionValue": "FACTXIV",
        "conceptId": "C102272",
        "decode": "Factor XIV Measurement"
      },
      {
        "submissionValue": "FACTXIVA",
        "conceptId": "C105442",
        "decode": "Factor XIV Activity Measurement"
      },
      {
        "submissionValue": "FAI",
        "conceptId": "C124341",
        "decode": "Free Androgen Index"
      },
      {
        "submissionValue": "FAS",
        "conceptId": "C165960",
        "decode": "Fas Cell Surface Death Receptor Measurement"
      },
      {
        "submissionValue": "FASLG",
        "conceptId": "C199921",
        "decode": "Fas Ligand Measurement"
      },
      {
        "submissionValue": "FAT",
        "conceptId": "C96648",
        "decode": "Fat Measurement"
      },
      {
        "submissionValue": "FATACFR",
        "conceptId": "C80200",
        "decode": "Non-esterified Fatty Acids Measurement"
      },
      {
        "submissionValue": "FATACFRS",
        "conceptId": "C80206",
        "decode": "Saturated Non-esterified Fatty Acids Measurement"
      },
      {
        "submissionValue": "FATACFRU",
        "conceptId": "C80209",
        "decode": "Unsaturated Non-esterified Fatty Acids Measurement"
      },
      {
        "submissionValue": "FATACVLC",
        "conceptId": "C147337",
        "decode": "Very Long Chain Fatty Acids Measurement"
      },
      {
        "submissionValue": "FATBODOV",
        "conceptId": "C81947",
        "decode": "Oval Fat Body Measurement"
      },
      {
        "submissionValue": "FATDROP",
        "conceptId": "C98728",
        "decode": "Fat Droplet Measurement"
      },
      {
        "submissionValue": "FATLVIDX",
        "conceptId": "C156516",
        "decode": "Fatty Liver Index"
      },
      {
        "submissionValue": "FATTOTSD",
        "conceptId": "C187806",
        "decode": "Fats to Total Solids Ratio Measurement"
      },
      {
        "submissionValue": "FBNCTCE",
        "conceptId": "C172507",
        "decode": "Cellular Fibronectin Measurement"
      },
      {
        "submissionValue": "FBNCTFT",
        "conceptId": "C92786",
        "decode": "Fetal Fibronectin Test"
      },
      {
        "submissionValue": "FBNCTMFT",
        "conceptId": "C177951",
        "decode": "Maternal and Fetal Fibronectin Measurement"
      },
      {
        "submissionValue": "FBNCTPL",
        "conceptId": "C172508",
        "decode": "Plasma Fibronectin Measurement"
      },
      {
        "submissionValue": "FBRTST",
        "conceptId": "C105443",
        "decode": "FibroTest Score Measurement"
      },
      {
        "submissionValue": "FCTVIIAA",
        "conceptId": "C103398",
        "decode": "Factor VIIa Activity Measurement"
      },
      {
        "submissionValue": "FCTVIIIA",
        "conceptId": "C103399",
        "decode": "Factor VIII Activity Measurement"
      },
      {
        "submissionValue": "FCTXIIIA",
        "conceptId": "C174313",
        "decode": "Factor XIII Activity Measurement"
      },
      {
        "submissionValue": "FDP",
        "conceptId": "C82013",
        "decode": "Fibrin Degradation Products Measurement"
      },
      {
        "submissionValue": "FECA",
        "conceptId": "C114219",
        "decode": "Fractional Excretion of Calcium"
      },
      {
        "submissionValue": "FECL",
        "conceptId": "C114220",
        "decode": "Fractional Excretion of Chloride"
      },
      {
        "submissionValue": "FEK",
        "conceptId": "C114222",
        "decode": "Fractional Excretion of Potassium"
      },
      {
        "submissionValue": "FEMG",
        "conceptId": "C122119",
        "decode": "Fractional Excretion of Magnesium"
      },
      {
        "submissionValue": "FEN3M",
        "conceptId": "C184525",
        "decode": "3-Methylfentanyl Measurement"
      },
      {
        "submissionValue": "FENA",
        "conceptId": "C107435",
        "decode": "Fractional Excretion of Sodium"
      },
      {
        "submissionValue": "FENACE",
        "conceptId": "C184528",
        "decode": "Acetylfentanyl Measurement"
      },
      {
        "submissionValue": "FENAM",
        "conceptId": "C184537",
        "decode": "Alpha-Methylfentanyl Measurement"
      },
      {
        "submissionValue": "FENBOHT",
        "conceptId": "C184530",
        "decode": "Beta-Hydroxythiofentanyl Measurement"
      },
      {
        "submissionValue": "FENBUT",
        "conceptId": "C184533",
        "decode": "Butyrylfentanyl Measurement"
      },
      {
        "submissionValue": "FENCMFMN",
        "conceptId": "C184618",
        "decode": "Fencamfamin Measurement"
      },
      {
        "submissionValue": "FENFLRMN",
        "conceptId": "C184619",
        "decode": "Fenfluramine Measurement"
      },
      {
        "submissionValue": "FENFUR",
        "conceptId": "C184541",
        "decode": "Furanylfentanyl Measurement"
      },
      {
        "submissionValue": "FENPF",
        "conceptId": "C184558",
        "decode": "Para-Fluorofentanyl Measurement"
      },
      {
        "submissionValue": "FENPRPRX",
        "conceptId": "C184620",
        "decode": "Fenproporex Measurement"
      },
      {
        "submissionValue": "FENTANYL",
        "conceptId": "C147338",
        "decode": "Fentanyl Measurement"
      },
      {
        "submissionValue": "FENVAL",
        "conceptId": "C184607",
        "decode": "Valerylfentanyl Measurement"
      },
      {
        "submissionValue": "FEP",
        "conceptId": "C147339",
        "decode": "Free Erythrocyte Protoporphyrin Measurement"
      },
      {
        "submissionValue": "FEPI",
        "conceptId": "C114221",
        "decode": "Fractional Excretion of Phosphate"
      },
      {
        "submissionValue": "FERRITIN",
        "conceptId": "C74737",
        "decode": "Ferritin Measurement"
      },
      {
